AccX,AccY,AccZ,GyroX,GyroY,GyroZ,AccX,AccY,AccZ,GyroX,GyroY,GyroZ,AccX,AccY,AccZ,GyroX,GyroY,GyroZ,AccX,AccY,AccZ,GyroX,GyroY,GyroZ,AccX,AccY,AccZ,GyroX,GyroY,GyroZ,AccX,AccY,AccZ,GyroX,GyroY,GyroZ,AccX,AccY,AccZ,GyroX,GyroY,GyroZ,AccX,AccY,AccZ,GyroX,GyroY,GyroZ,AccX,AccY,AccZ,GyroX,GyroY,GyroZ,AccX,AccY,AccZ,GyroX,GyroY,GyroZ,AccX,AccY,AccZ,GyroX,GyroY,GyroZ,AccX,AccY,AccZ,GyroX,GyroY,GyroZ,AccX,AccY,AccZ,GyroX,GyroY,GyroZ,AccX,AccY,AccZ,GyroX,GyroY,GyroZ,AccX,AccY,AccZ,GyroX,GyroY,GyroZ,AccX,AccY,AccZ,GyroX,GyroY,GyroZ,AccX,AccY,AccZ,GyroX,GyroY,GyroZ,AccX,AccY,AccZ,GyroX,GyroY,GyroZ,AccX,AccY,AccZ,GyroX,GyroY,GyroZ,AccX,AccY,AccZ,GyroX,GyroY,GyroZ,AccX,AccY,AccZ,GyroX,GyroY,GyroZ,AccX,AccY,AccZ,GyroX,GyroY,GyroZ,AccX,AccY,AccZ,GyroX,GyroY,GyroZ,AccX,AccY,AccZ,GyroX,GyroY,GyroZ,AccX,AccY,AccZ,GyroX,GyroY,GyroZ,AccX,AccY,AccZ,GyroX,GyroY,GyroZ,AccX,AccY,AccZ,GyroX,GyroY,GyroZ,AccX,AccY,AccZ,GyroX,GyroY,GyroZ,AccX,AccY,AccZ,GyroX,GyroY,GyroZ,AccX,AccY,AccZ,GyroX,GyroY,GyroZ,AccX,AccY,AccZ,GyroX,GyroY,GyroZ,AccX,AccY,AccZ,GyroX,GyroY,GyroZ,AccX,AccY,AccZ,GyroX,GyroY,GyroZ,AccX,AccY,AccZ,GyroX,GyroY,GyroZ,AccX,AccY,AccZ,GyroX,GyroY,GyroZ,AccX,AccY,AccZ,GyroX,GyroY,GyroZ,AccX,AccY,AccZ,GyroX,GyroY,GyroZ,AccX,AccY,AccZ,GyroX,GyroY,GyroZ,AccX,AccY,AccZ,GyroX,GyroY,GyroZ,AccX,AccY,AccZ,GyroX,GyroY,GyroZ,AccX,AccY,AccZ,GyroX,GyroY,GyroZ,AccX,AccY,AccZ,GyroX,GyroY,GyroZ,AccX,AccY,AccZ,GyroX,GyroY,GyroZ,AccX,AccY,AccZ,GyroX,GyroY,GyroZ,AccX,AccY,AccZ,GyroX,GyroY,GyroZ,AccX,AccY,AccZ,GyroX,GyroY,GyroZ,AccX,AccY,AccZ,GyroX,GyroY,GyroZ,AccX,AccY,AccZ,GyroX,GyroY,GyroZ,AccX,AccY,AccZ,GyroX,GyroY,GyroZ,AccX,AccY,AccZ,GyroX,GyroY,GyroZ,AccX,AccY,AccZ,GyroX,GyroY,GyroZ,AccX,AccY,AccZ,GyroX,GyroY,GyroZ,AccX,AccY,AccZ,GyroX,GyroY,GyroZ,AccX,AccY,AccZ,GyroX,GyroY,GyroZ,AccX,AccY,AccZ,GyroX,GyroY,GyroZ,AccX,AccY,AccZ,GyroX,GyroY,GyroZ,AccX,AccY,AccZ,GyroX,GyroY,GyroZ,AccX,AccY,AccZ,GyroX,GyroY,GyroZ,AccX,AccY,AccZ,GyroX,GyroY,GyroZ,AccX,AccY,AccZ,GyroX,GyroY,GyroZ,Label,Activity
9.935936928,0.833182216,0.921767652,-0.231822357,0.010658499,-0.083935678,9.957485199,0.545877993,1.00556469,-0.148419604,-0.011191424,-0.068747319,10.07719517,0.825999558,0.794874966,-0.074875958,-0.038370594,-0.047963247,9.967061996,0.991199493,0.974440098,-0.026646247,-0.051960181,-0.007727412,10.0604353,0.567425787,1.18752408,0.010392036,-0.071678407,-0.001332312,9.943120003,0.023942016,1.031900883,0.174799383,-0.047963247,0.042367533,10.0556469,0.308852017,0.251391172,0.382640123,0.003464012,0.074609496,10.13465595,1.276109457,-0.835576415,0.376777947,0.28777948,0.107384384,10.74278259,1.053448796,0.222660765,0.23475343,0.671218991,0.132698312,9.275136948,2.633621931,0.328005642,-0.358924955,0.447656959,-0.05595712,9.715670586,1.426944256,2.916137695,-0.433267981,0.281650841,-0.056756508,11.32217979,0.749385118,2.461239338,-0.089797854,0.240882084,-0.239549771,9.06205368,1.393425345,2.446874142,0.049295556,0.136428788,-0.379442573,9.392453194,2.310404539,2.418143749,0.024248086,0.068747319,-0.416214377,9.47146225,2.576161146,2.391807556,-0.098058186,0.075142421,-0.382107198,9.234436035,1.429338455,2.446874142,-0.053825419,0.107117914,-0.298970878,9.967061996,1.771709204,2.111685991,-0.011724349,0.112447165,-0.340805531,9.84974575,1.407790542,2.365471363,0.152416542,0.342937201,-0.403157741,9.105149269,2.485181332,1.929726601,0.078872897,0.206774876,-0.389035225,9.473855972,2.525882721,1.383848548,-0.03543951,0.345068902,-0.244879022,7.953537941,2.509123325,2.365471363,0.020251149,0.252073497,-0.057289433,8.686163902,2.964021683,2.111685991,-0.171601832,-0.106584989,0.110581927,9.351752281,2.372653961,2.324769735,-0.304033697,-0.189188361,0.2051761,9.581595421,2.365471363,2.219424963,-0.36878407,-0.299770296,0.21503523,9.50976944,1.489193439,3.004723072,-0.192119434,-0.228891268,0.172134757,9.947908401,1.980004787,2.463633537,0.032774884,-0.237950996,0.158278719,8.547300339,1.800439715,2.837129116,0.1854579,-0.33867383,0.24567841,10.68532181,1.470039845,1.079784989,0.492955565,-0.247277185,0.284581929,8.925583839,2.020706177,1.553836942,0.49135682,-0.317356825,0.246211335,10.16817474,2.894589901,0.521935999,0.290977001,-0.312560499,0.220098019,9.639056206,1.824381709,0.694318473,0.163607955,-0.126036748,0.20624195,9.516951561,2.501940727,0.67037648,-0.012523737,-0.213969365,0.278719753,9.284713745,3.339911461,0.067037649,-0.473770291,-0.363454819,0.202511474,9.787496567,0.179565132,-0.636857629,-0.494287878,-0.672551274,0.365320057,12.14817905,-0.718260527,-0.806845963,-0.240615621,-0.398361385,0.069013782,9.301473618,0.912190855,0.339976639,-0.031176111,-0.232355282,0.107117914,10.3214035,0.873883605,0.761356115,0.028511487,-0.221430331,0.032774884.1,10.16817474.1,1.716642618,0.835576415,-0.11298009,-0.014122511,0.034640122,10.27591324,0.960074902,0.617704034,-0.235552832,0.189188361,-0.03757121,9.911994934,1.015141487,0.050278235,-0.256070435,0.336808592,-0.128967836,10.17535686,0.864306808,-0.143652096,-0.145488501,0.322419584,-0.062885143,10.25436592,-0.16759412,-0.641646028,0.249408886,0.281650841.1,0.094061248,9.730035782,1.055842996,0.969651699,0.217699856,0.186523736,0.134830013,10.88643551,1.108515382,1.335964561,-0.03757121.1,0.051960181,0.151350692,10.33337498,0.766144514,1.261744261,-0.10178867,0.131099537,0.210238889,10.08916569,0.969651699,1.213860273,-0.262731999,0.163341507,0.304300129,9.792284966,0.471657723,1.529894829,-0.421810091,0.274989277,0.32721591,10.42914295,0.052672438,1.307234168,-0.386104137,0.338407338,0.349332303,10.13944435,0.478840351,1.948880196,-0.325350702,0.436465532,0.428471655,10.14662647,-0.457292527,1.489193439,0.086866774,0.202245027,0.492955565,9.674968719,-0.490811348,1.00556469,-0.005329249,0.276588053,0.400226623,8.583212852,-0.701501071,0.323217243,-0.214768767,0.30643183,0.292309314,8.224082947,-1.587355733,1.685518026,-0.435133219,0.379442573,0.126036748,8.827422142,-1.977610588,1.831564307,-0.053292494,0.059687596,-0.149218991,10.08198357,-0.960074902,1.719036818,0.065016843,0.082603365,-0.351464033,10.0317049,0.318428814,2.22900176,0.098058186,-0.03757121,-0.356260329,10.00536919,0.162805721,3.134010077,-0.067681469,0.0021317,-0.28777948,8.983044624,-0.761356115,3.75650239,-0.120973967,-0.207041353,-0.321886688,9.02374649,-1.429338455,2.473210335,0.070346095,-0.569963276,-0.347200602,10.96783829,1.735796213,1.15400517,-0.148419604,-0.174799383,-0.406355262,0,HIGHKNEES
9.959878922,1.094150186,0.531512797,-0.125770286,0.009326187,-0.021849923,10.00536919,1.00556469,0.550666392,-0.132964775,0.020251149,-0.02158346,9.981427193,1.058237195,0.55784899,-0.140159264,0.023448698,-0.025580399,10.07958889,0.993593693,0.572214186,-0.148153126,0.018918836,-0.027445635,10.0364933,0.648828685,0.548272192,-0.098058186,0.013056661,-0.018918836,10.12507915,0.581790984,0.531512797,-0.011990812,0.046630934,0.017320061,10.14423275,0.258573771,0.48362875,0.104453288,0.086067379,0.057289433,9.847352028,0.411802679,0.636857629,0.220098019,0.08313629,0.081004597,10.11789608,0.751779318,0.10295067,0.24567841,0.159611031,0.089264929,10.42674828,0.603338838,-0.366312861,0.24567841,0.432735085,0.072211333,10.23281765,0.770932972,0.433350503,0.256070435,0.677081168,0.034906585,9.411606789,2.001552582,0.399831682,-0.107917301,0.362122506,-0.086866774,9.107542992,2.298433542,0.993593693,-0.51000917,0.24514547,-0.016254211,11.10430717,0.213083953,3.01429987,-0.309362948,0.265130162,-0.139093414,9.813833237,0.869095206,2.53067112,-0.143356815,0.137494639,-0.209439516,9.042900085,1.403002143,1.996764183,-0.118042871,-0.154015318,-0.307231247,10.37407589,1.529894829,1.491587639,0.019984685,-0.136961713,-0.303767234,9.169792175,2.04704237,2.401384354,-0.020784073,-0.048496172,-0.290710568,10.09874249,1.865083098,1.754949808,-0.152150065,-0.069013782,-0.249675348,9.902418137,1.158793569,2.288856745,-0.095926493,0.139626339,-0.3168239,10.39801788,1.953668594,1.714248419,-0.059154671,0.188921899,-0.389035225,10.14183807,1.424550056,1.817199111,-0.106318533,0.281917304,-0.51320678,10.19211674,1.692700624,1.118092179,-0.159078106,0.258735061,-0.525197506,8.135497093,2.173935175,1.41257906,-0.010658499,0.296572745,-0.412217438,8.094796181,3.236960649,2.003946781,0.07274425,0.170269519,-0.196116373,8.092401505,3.347094059,2.353500366,-0.028777948,-0.023182238,0.006928025,9.208099365,3.351882458,1.695094824,-0.281650841,-0.158278719,0.116177641,9.078812599,2.8969841,2.262520552,-0.417013764,-0.07993874,0.187323123,9.797073364,2.686294317,2.547430515,-0.502015293,-0.18492496,0.183592647,9.325415611,2.624045134,2.664746523,-0.622189879,-0.220630929,0.168670759,9.485827446,1.556231141,2.384624958,-0.557705998,-0.171068922,0.148419604,10.05804157,1.980004787,1.465251446,-0.409552813,-0.231289431,0.120707504,9.526528358,0.962469101,2.243366957,-0.099923424,0.015987748,0.15534763,9.581595421,2.45405674,1.393425345,0.0042634,-0.186257273,0.14495559,9.710882187,1.922544003,1.968033791,0.016520673,-0.039702907,0.104186833,9.136273384,2.901772499,1.470039845,-0.110315464,-0.260866761,0.119108729,9.639056206,1.22822547,1.793257117,0.034640122,-0.188921899,0.199047476,9.057265282,1.889025092,1.098938584,0.123905048,-0.376244992,0.28564778,10.45547867,1.798045516,0.919373453,0.09272895,-0.226759583,0.330679953,10.23760605,1.963245392,0.435744703,-0.099923424,-0.241415009,0.145488501,9.847352028,1.362300754,0.787692368,-0.200646251,-0.2648637,0.097525269,10.49378586,0.969651699,0.129286885,-0.232621744,-0.330147028,0.022915773,10.44111347,1.395819545,0.162805721,-0.199846849,-0.197981626,-0.011191424,9.928754807,1.874659896,0.665588081,-0.253938764,-0.018652374,0.061019909,9.99100399,0.541089594,0.679953277,-0.263531387,0.001865237,0.130033687,9.466673851,-0.720654726,-0.404620081,0.049562022,0.179595709,-0.020784073,10.65898609,1.908178806,-0.392649084,0.197981626,0.064750381,0.049828485,10.09874249,-0.165199921,-1.074996591,0.425807029,0.248343036,0.116977029,10.10831928,1.247379065,2.403778553,0.271791726,0.274989277,0.033041347,10.97262669,1.704671621,1.934514999,0.023182238,0.209705979,0.182260334,9.461885452,0.397437483,2.511517525,0.00106585,0.178529859,0.304833084,10.09156036,0.718260527,1.632845521,-0.142290965,0.113246553,0.311228186,9.569623947,0.093373865,2.463633537,-0.237684533,0.255271077,0.265396625,10.66137981,-0.150834709,1.489193439,-0.056756508,0.301369071,0.311761081,9.713275909,0.718260527,1.426944256,-0.147886679,0.509476244,0.280584991,8.851364136,-0.450109929,1.422155857,-0.100722812,0.324551284,0.203843787,8.777143478,-0.766144514,1.482010841,0.054358348,0.138294026,0.0063951,9.217676163,-0.521935999,1.793257117,0.202777937,-0.07087902,-0.106318533,9.739612579,0.136469498,1.836352706,0.29603982,-0.285114855,-0.13456355,10.01973438,-0.057460841,1.805228114,0.401825428,-0.360523731,-0.114045948,0,HIGHKNEES
9.923966408,1.201889277,0.684741676,-0.077540584,0.01385605,-0.014921899,9.933543205,1.211466074,0.656011283,-0.077007659,0.00319755,-0.013589587,9.974244118,1.206677675,0.617704034,-0.074609496,0.014388974,-0.012523737,9.909601212,1.233013868,0.679953277,-0.096192956,0.005595712,-0.009859112,9.959878922,1.201889277,0.646434486,-0.122039817,-0.014921899,-0.013056661,9.916783333,1.149216771,0.646434486,-0.150018379,-0.050361406,-0.000266462,10.16338634,0.821211159,0.663193882,-0.123638593,-0.094061248,-0.003996937,10.00536919,0.624886632,0.560243189,-0.041568145,-0.077274114,0.032508422,10.03888798,0.529118598,0.466869324,0.065283306,-0.05142726,0.060220521,10.14423275,0.751779318,0.04070143,0.156147003,0.059421133,0.065816231,9.569623947,1.446097851,-0.612915635,0.049562022,0.216367543,0.113779478,9.854534149,0.825999558,-0.134075299,-0.02904441,0.336808592,0.219032168,10.43871975,0.656011283,-0.289698392,-0.090863705,0.247810096,0.162009194,9.818621635,1.027112484,0.260968,-0.231289431,0.277653903,0.087932616,10.69489861,1.082179189,2.564189911,-0.154548228,0.272591114,-0.008526799,10.66137981,0.67037648,2.212242365,-0.049828485,0.2648637,-0.204376727,9.174580574,1.242590666,1.987187386,-0.10258805,0.029310873,-0.340805531,10.46505547,1.529894829,1.48679924,0.012523737,0.089531392,-0.382107198,9.603142738,1.541865945,2.063801765,0.053292494,0.323485464,-0.340272576,10.18493366,0.797269166,1.824381709,0.222762644,0.373313934,-0.357059717,9.097966194,1.900996208,2.477998734,0.201445624,0.453519166,-0.411684513,9.87608242,2.48996973,1.836352706,0.074875958,0.331212848,-0.456450224,8.951920509,1.946485996,2.15478158,0.069280244,0.338140905,-0.39889431,9.119514465,2.439691544,1.48679924,-0.006928025,0.135362938,-0.260067374,8.762778282,2.473210335,1.704671621,0.061019909,0.248609498,-0.109516084,8.803479195,2.71502471,1.908178806,-0.049295556,0.074609496,0.038637057,9.107542992,2.504334927,2.473210335,-0.158811629,0.007993874,0.104186833,8.959102631,2.952050686,2.571372509,-0.435133219,-0.332012266,0.144689128,9.504981041,2.245761156,2.626439333,-0.553442538,-0.404490054,0.138560489,10.24718285,1.776497602,1.924938202,-0.464977026,-0.344003052,0.07301072,9.181763649,2.475604534,2.032677174,-0.49029094,-0.351464033,0.000799387,10.23042393,1.328781962,1.733402014,-0.229690656,-0.100189894,0.063151613,8.820239067,2.410961151,2.358288765,-0.208640128,-0.221430331,0.073810108,10.29506683,1.632845521,1.632845521,-0.132165387,-0.032508422,0.107117914,8.422801971,2.624045134,2.303221941,-0.231289431,-0.262199074,0.103653908,9.885659218,1.886630893,1.204283476,-0.192385912,-0.30856356,0.22702603,9.579200745,1.103726983,1.103726983,-0.051160797,-0.195317,0.31788975,10.44350815,2.027888775,0.677559078,-0.146554366,-0.191320062,0.28884533,9.923966408,2.604891539,0.430956304,-0.458048999,-0.243013784,0.092995405,10.3309803,0.162805721,-0.124498487,-0.526796341,-0.414082706,0.033041347,10.42674828,1.175553083,0.079008654,-0.444725901,-0.122572735,-0.000266462,9.770736694,0.33279404,0.689530075,-0.251540571,0.061286367,0.087666154,10.27591324,-0.086191259,1.130063176,-0.095926493,0.198514536,-0.042633995,10.47463226,1.891419291,0.500388145,-0.089264929,0.140958652,0.159611031,9.485827446,-0.579396784,-0.179565132,0.222229704,-0.029310873,0.248609498,10.74278259,0.821211159,1.185129881,0.171868294,0.070346095,0.188655436,10.44829655,1.048660398,1.395819545,0.073543645,0.147620216,0.309362948,10.00058079,0.715866327,1.97042799,0.010125575,0.110049009,0.296572745,10.15141487,0.155623108,1.738190413,-0.017852986,0.140958652,0.320554376,9.296685219,0.136469498,2.209848166,-0.055690661,0.157479316,0.281117916,10.57040024,-0.134075299,1.340752959,0.002931087,0.132698312,0.288045943,10.00536919,0.694318473,1.565807939,-0.108450226,0.359990805,0.309629381,9.694122314,-0.474051923,1.242590666,0.000266462,0.293375194,0.3168239,9.516951561,-0.397437483,1.252167463,0.034107197,0.375978559,0.142290965,8.626308441,-0.385466486,1.496376038,-0.081803977,0.285114855,0.006128637,8.992621422,-0.737414122,1.587355733,-0.08020521,0.12230628,-0.114578865,9.686940193,-0.758961916,1.889025092,0.03650536,-0.070346095,-0.151617154,10.13944435,-0.079008654,2.027888775,0.084202148,-0.312560499,-0.169203669,10.08437729,-0.086191259,1.845929503,0.02691271,-0.30643183,-0.176131696,9.425971985,0.10295067,2.7509377,-0.151350692,-0.197715163,-0.22542727,0,HIGHKNEES
9.967061996,1.067813993,0.459686726,-0.094327718,-0.012790199,-0.008260337,10.06761837,1.039083481,0.430956304,-0.104986221,-0.025047474,-0.010125575,10.11789608,0.840364814,0.423773706,-0.076208271,-0.020784073,-0.005329249,10.15141487,0.435744703,0.282515794,0.025047474,0.014655436,0.028777948,10.20887566,0.299275219,0.198718742,0.168937206,0.132698312,0.030376723,9.866505623,0.545877993,0.543483794,0.27738744,0.190254211,0.044765696,9.83777523,0.991199493,0.026336219,0.262731999,0.110848397,0.062352221,9.734824181,1.386242747,-0.845153213,0.104719758,0.244346097,0.089531392,11.04924107,0.284909993,-0.239420176,0.094594181,0.468707502,0.072477795,9.48343277,1.501164436,0.124498487,-0.241415009,0.343736589,-0.110315464,9.26556015,2.006340981,1.355118155,-0.470306277,0.149218991,-0.086866774,11.47540855,-0.193930343,2.767697096,-0.17346707,0.24514547,-0.114578865,9.425971985,1.15400517,1.841141105,-0.059421133,0.10285452,-0.326416522,9.576807022,1.948880196,1.489193439,-0.131099537,0.018119449,-0.358125567,10.01733971,1.81959331,1.692700624,-0.097258806,0.132698312,-0.337874413,9.739612579,1.544260144,1.946485996,-0.033307809,0.1854579,-0.268594176,9.955090523,1.132457376,2.025494576,0.088732004,0.265663087,-0.283782542,9.533711433,2.197877169,2.025494576,0.061286367,0.291509956,-0.361856043,9.282320023,2.147598982,1.999158382,0.033840735,0.274456352,-0.340805531,8.880094528,2.23139596,1.505952835,-0.00106585,0.131099537,-0.146820813,9.339780807,2.466027737,1.656787634,-0.016520673,0.136961713,-0.038903523,9.255983353,2.224213362,1.577778935,-0.119108729,-0.003464012,0.031176111,9.121908188,1.989581585,2.04464817,-0.002664625,-0.054358348,0.053292494,9.617507935,2.255337954,1.355118155,-0.016787136,-0.226226643,0.104986221,9.794678688,2.248155355,1.675941229,-0.105252676,-0.088732004,0.100456357,9.854534149,2.26970315,1.218648672,-0.203044415,-0.090064317,0.089797854,9.631873131,1.81959331,2.391807556,-0.203310877,0.084202148,0.065016843,9.327810287,2.262520552,2.446874142,-0.204376727,-0.026379786,0.087133229,8.719682693,2.437297344,3.191470861,-0.277120978,-0.181993872,0.137494639,9.670180321,2.463633537,1.563413739,-0.285914242,-0.268860638,0.303767234,8.920795441,1.314416766,1.570596337,-0.236085743,-0.552376747,0.387169987,11.41076565,0.107739076,0.888248801,0.061819296,-0.211571202,0.29497394,9.313444138,0.950498104,1.675941229,0.274722815,-0.255803972,0.113779478,9.859322548,2.300827742,0.694318473,0.116977029,-0.374646246,0.102055125,10.62307262,2.070984364,-0.414196908,-0.321353763,-0.354128659,-0.051160797,10.18972206,2.23139596,-0.395043284,-0.542517602,-0.249408886,-0.227825418,9.39484787,1.996764183,-0.158017308,-0.661093354,-0.201445624,-0.078606427,10.0604353,1.977610588,0.031124622,-0.840156198,-0.186523736,-0.012523737,10.14423275,-0.220266551,0.383072257,-0.592079639,-0.017053599,0.128168449,9.569623947,-0.524330199,-0.253785372,-0.137494639,0.071145482,-0.032241959,10.13704967,2.248155355,-0.217872351,-0.099923424,0.078872897,-0.095393561,10.16817474,0.945709646,-0.960074902,0.007460949,0.035972435,0.00319755,10.41956615,0.191536129,0.59615624,0.187589586,0.160676882,-0.03996937,11.13064384,1.37427175,1.616086125,0.097791731,0.249142408,0.185724348,10.11071396,0.380678058,1.472434044,0.175865233,0.217966303,0.330946386,9.933543205,1.565807939,1.601720929,-0.042633995,0.240082696,0.231555894,10.0269165,0.617704034,1.740584612,-0.224094957,0.208373666,0.220364481,9.883264542,0.612915635,1.766920805,-0.206508413,0.181194484,0.208906576,10.58237171,1.079784989,1.017535686,-0.184125587,0.236885145,0.301635504,10.20887566,0.679953277,0.888248801,-0.186790213,0.443393588,0.345868289,9.56004715,0.04309563,0.713472128,-0.159344569,0.444992334,0.329081148,9.081207275,0.119710088,0.608127236,-0.466842234,0.496153146,0.25766921,8.662221909,-0.962469101,1.618480325,-0.51320678,0.334410399,0.152949467,8.865729332,-1.247379065,2.176329374,-0.243013784,0.054358348,-0.075142421,9.648633003,-0.900219858,1.829170108,0.067415006,-0.08233691,-0.247277185,9.672574997,-0.284909993,2.767697096,0.317090333,-0.180928022,-0.285114855,10.32379818,0.426167905,1.862688899,0.332012266,-0.375445634,-0.158012256,10.04367638,0.55784899,1.702277422,0.135362938,-0.160410419,-0.077007659,9.543288231,0.600944638,2.300827742,-0.057555895,-0.051960181,-0.22542727,9.308655739,-0.404620081,2.513911724,0.024248086,-0.356526792,-0.209972441,0,HIGHKNEES
10.06761837,0.802057564,0.423773706,-0.087399691,0.022915773,-0.043699846,10.02212811,0.711077929,0.462080926,-0.042367533,0.039169986,-0.037304748,9.998186111,0.677559078,0.435744703,-0.005862175,0.03543951,-0.028245023,10.17056847,0.545877993,0.325611442,0.060220521,0.06981317,-0.00106585,10.10831928,0.603338838,0.213083953,0.139359877,0.15481469,0.040768761,9.777919769,1.015141487,-0.241814375,0.095926493,0.217966303,0.079139359,10.03409958,0.835576415,-0.258573771,0.02797856,0.333611012,0.09033078,10.06761837,1.383848548,0.067037649,-0.195050538,0.269127101,0.036771823,9.464279175,2.382230759,-0.588973641,-0.616860628,0.000532925,-0.056223582,10.85770512,0.565031588,1.63763392,-0.488692194,0.149751917,-0.034906585,11.018116,0.402225882,2.08295536,-0.107117914,0.262465537,-0.209173039,9.648633003,1.505952835,1.644816518,0.002664625,0.305632442,-0.348266453,9.485827446,1.642422318,1.89860189,-0.006928025,0.204909652,-0.331479341,9.969455719,1.575384736,1.951274395,0.094061248,0.391433388,-0.313359886,9.373299599,1.675941229,2.217030764,0.081004597,0.353595704,-0.320021451,9.799467087,1.26413846,2.33913517,0.187056661,0.421810091,-0.374912739,9.11233139,2.743755102,2.185906172,0.098324656,0.309362948,-0.415681452,9.516951561,2.545036316,2.106897593,0.005595712,0.348266453,-0.400493115,9.038111687,2.559401512,1.963245392,-0.057022974,0.247543648,-0.328814715,9.169792175,2.145204782,1.549048543,-0.025580399,0.194517612,-0.209705979,8.765172005,2.942473888,1.728613615,-0.042101074,0.159344569,-0.073810108,9.129091263,2.63601613,2.126051188,-0.119375192,0.05249311,0.062885143,8.851364136,2.614468336,2.506729126,-0.204909652,-0.114845328,0.1854579,9.572018623,2.49236393,2.588132143,-0.289111793,-0.260333836,0.212637067,9.507374763,2.087743998,2.525882721,-0.247543648,-0.300569683,0.184392035,9.200917244,1.754949808,2.683900118,-0.128701374,-0.328548223,0.201978564,9.706093788,1.987187386,2.188300371,0.001865237,-0.32721591,0.182793275,9.234436035,2.04464817,2.616862535,0.038370594,-0.253672272,0.187323123,10.15620327,2.710236311,1.740584612,-0.008526799,-0.314692199,0.127635539,8.937555313,2.070984364,1.89620769,-0.029577335,-0.322686076,0.131366,10.55842972,2.027888775,0.567425787,0.072477795,-0.380508423,0.126836136,9.459490776,1.254561663,1.37427175,0.187056661,-0.107917301,0.115644716,9.277531624,2.758120298,1.091755986,0.075941809,-0.241947934,0.191053599,10.06522369,2.406172752,0.37349546,-0.209439516,-0.172401235,0.223295555,9.900024414,2.334346771,-0.112527482,-0.435399711,-0.109782539,0.128434911,9.378087997,1.007958889,0.181959331,-0.503614068,-0.213169977,0.257136285,11.64300251,0.560243189,-0.469263524,-0.389834613,-0.218232766,0.078606427,9.689333916,0.952892303,-0.150834709,-0.272857577,0.139093414,0.017852986,9.974244118,1.185129881,0.916979253,-0.228624806,0.063418068,0.094860643,10.68771648,-0.201112941,-0.098162271,0.03543951,0.102055125,0.21610108,9.258378029,-0.10295067,0.442927301,0.203843787,0.111381322,0.104186833,11.32696819,1.438915253,0.735019922,0.039436448,-0.053026035,0.22382848,9.969455719,0.577002585,1.15400517,0.013056661,0.078339972,0.286980093,10.28788471,0.390254885,1.482010841,-0.045298621,0.097258806,0.267528325,9.792284966,0.497993946,1.647210717,-0.140958652,0.116710559,0.266196012,9.854534149,-0.260968,1.908178806,-0.11191424,0.1854579,0.230490044,10.51054573,0.349553436,1.865083098,-0.045032158,0.257402748,0.281650841,10.37168217,-0.064643443,1.862688899,0.062085759,0.320820838,0.335209787,9.706093788,0.153228909,1.204283476,0.16520673,0.083669223,0.292575806,9.148244858,-0.339976639,0.550666392,0.09272895,0.218232766,0.260600299,8.985439301,-0.773327172,0.63206923,-0.07301072,0.351996928,0.075142421,8.638279915,-0.653617084,1.292868972,-0.204376727,0.25553751,-0.086333841,9.588777542,-0.620098233,1.132457376,-0.122839205,0.02691271,-0.213169977,10.24957752,-0.37349546,1.347935557,0.028245023,-0.080471672,-0.264597237,10.51533413,0.378283858,1.462857246,-0.035705972,-0.103920363,-0.271525264,10.12029076,0.232237563,1.683123827,-0.136961713,-0.108716697,-0.200113311,9.579200745,0.450109929,2.133233786,-0.250741184,-0.050627869,-0.208107188,9.555258751,-0.622492433,1.493981838,-0.176664621,-0.213169977,-0.280318528,9.955090523,1.261744261,1.886630893,-0.268327713,-0.062352221,-0.259001523,10.34774017,-0.059855044,1.161187768,-0.237684533,-0.238750383,-0.322419584,0,HIGHKNEES
10.01973438,1.055842996,0.339976639,-0.119908117,-0.017586524,-0.041834611,10.00058079,0.986411095,0.330399841,-0.116977029,-0.014122511,-0.041301683,10.10592556,1.000776291,0.351947635,-0.107117914,-0.008260337,-0.045032158,10.22802925,0.665588081,0.356736064,-0.049029093,0.033574272,-0.041834611,9.955090523,0.591367841,0.172382519,0.054091886,0.055157732,0.0021317,10.19929886,0.656011283,-0.277727395,0.110581927,0.08233691,0.031709034,9.852140427,0.974440098,-0.081402861,0.103387438,0.231022969,0.065283306,10.17296314,0.617704034,0.311246216,0.111114852,0.28884533,0.046897396,10.11310768,1.230619669,0.258573771,-0.022915773,0.1854579,-0.076208271,9.191340446,2.346317768,-0.708683729,-0.307231247,-0.076741189,-0.128967836,10.58716011,1.063025594,0.718260527,-0.312294006,0.09246248,-0.056756508,11.20007515,0.814028561,1.438915253,-0.124704443,0.313626319,-0.200379789,9.3685112,1.297657371,1.604115129,-0.115644716,0.313359886,-0.304300129,9.653421402,1.912967205,1.759738207,-0.166006133,0.171068922,-0.322419584,9.847352028,1.589749932,1.872265697,-0.13456355,0.221963242,-0.281117916,9.873687744,1.702277422,1.685518026,-0.098324656,0.139359877,-0.268594176,9.883264542,1.345541358,2.030282974,0.013323124,0.321620196,-0.311494648,9.583989143,2.480392933,1.996764183,-0.08313629,0.228891268,-0.418879032,10.22084713,2.123656988,1.704671621,-0.076474734,0.281117916,-0.480165392,10.01255131,1.989581585,1.039083481,-0.00106585,0.393565059,-0.465243489,9.591172218,2.00873518,0.792480767,0.203044415,0.574759543,-0.295240432,8.037335396,2.403778553,1.221042871,0.494287878,0.567298651,-0.133764163,8.169015884,3.150769472,2.363077164,0.378909618,0.395430326,0.031176111,8.295908928,3.172317266,2.770091295,0.098857582,-0.035972435,0.183059722,9.653421402,2.925714493,2.159569979,-0.053825419,-0.226759583,0.229690656,8.990227699,2.870647907,1.989581585,-0.187323123,-0.269393563,0.250741184,9.976638794,2.04464817,2.382230759,-0.045032158,-0.163874418,0.244079635,8.834604263,3.790021181,2.573766708,-0.367185295,-0.166272581,0.179062784,9.313444138,2.245761156,3.102885485,-0.419944882,0.000799387,0.209972441,9.174580574,2.980781078,2.56658411,-0.53079325,-0.415681452,0.180928022,9.59835434,1.07739079,1.956062794,-0.347467095,-0.202511474,0.22489433,9.715670586,2.86107111,1.060631394,-0.336009204,-0.597941756,0.1931853,10.19929886,0.778115571,0.950498104,-0.134830013,-0.122572735,0.195317,8.870517731,2.67671752,1.158793569,-0.133231238,-0.48096475,0.110315464,10.20169353,2.236184359,0.703895271,-0.204909652,-0.321886688,0.207840726,9.947908401,0.921767652,0.821211159,-0.07087902,-0.215301678,0.251007646,10.13704967,1.276109457,0.687135875,0.007993874,-0.080738127,0.239549771,10.28309631,2.183511972,0.390254885,-0.215834603,-0.105785601,0.14282389,10.30224991,0.972045898,0.064643443,-0.418879032,-0.193718225,-0.0063951,10.0556469,0.914585054,0.579396784,-0.345868289,-0.032241959,0.011990812,10.06522369,0.797269166,1.039083481,-0.301369071,0.058888208,0.080738127,9.715670586,-0.011971008,0.605733037,-0.161742732,0.033574272,0.02051761,10.42674828,0.287304193,0.150834709,0.086333841,-0.027712099,0.046897396,10.94389629,0.574608386,0.153228909,0.18385911,0.196116373,0.217166916,9.402029991,0.624886632,0.85473001,0.122839205,0.096459419,0.157212853,10.09395409,1.00556469,0.89303726,0.000532925,-0.017852986,0.179595709,10.21845245,0.37110126,0.907402456,-0.01385605,0.051693719,0.206774876,10.12029076,0.916979253,1.223437071,-0.085534461,0.10178867,0.210238889,9.868899345,0.031124622,1.728613615,-0.102321595,0.137494639,0.193718225,9.844957352,-0.04070143,1.826775908,-0.056223582,0.037837673,0.208107188,10.41717148,0.387860686,1.678335428,-0.128967836,0.20357734,0.218765706,10.16578007,0.169988319,1.869871497,-0.120441042,0.288045943,0.318422645,11.10909557,0.208295554,0.921767652,0.082603365,0.312560499,0.3885023,8.894459724,-0.14844051,1.379060149,0.045831546,0.353595704,0.259800911,8.83699894,-0.74220252,0.857124209,-0.078872897,0.246211335,0.20570904,8.904036522,-0.962469101,1.41018486,-0.205975503,0.281917304,0.045831546,8.528146744,-1.194706678,1.731007814,-0.148419604,0.040768761,-0.132698312,9.823410034,-0.603338838,1.417367458,0.018918836,-0.133764163,-0.28671363,10.44829655,0.069431849,1.41018486,0.096459419,-0.190787122,-0.302967817,10.0508585,-0.021547815,1.996764183,-0.365320057,0.057822358,-0.430603355,0,HIGHKNEES
9.950302124,1.177947283,0.521935999,-0.117776416,0.010125575,-0.032508422,9.99100399,1.079784989,0.500388145,-0.096725874,0.026113322,-0.033307809,10.18493366,1.010353088,0.450109929,-0.050361406,0.03543951,-0.040502299,10.08677197,0.591367841,0.526724398,0.063418068,0.08233691,-0.006928025,9.981427193,0.612915635,0.37349546,0.177464008,0.112447165,0.043966308,9.988609314,0.902614057,0.045489833,0.222229704,0.228358343,0.114045948,10.14902115,0.787692368,0.275333196,0.260600299,0.377577305,0.200646251,10.14902115,0.823605359,0.713472128,0.202245027,0.276854515,0.089531392,9.102754593,2.772485495,0.095768064,-0.241681471,-0.032241959,-0.073543645,10.14902115,1.546654344,1.537077546,-0.483629376,-0.064750381,-0.01385605,10.92713642,0.330399841,1.714248419,-0.251274139,0.041568145,-0.17346707,10.18014526,1.213860273,1.079784989,-0.110581927,0.075941809,-0.265396625,10.28549004,1.527500629,1.479616642,-0.03543951,0.275788665,-0.344003052,9.337387085,2.444479942,1.800439715,-0.167338446,0.283516079,-0.334410399,9.631873131,0.962469101,2.322375536,-0.110848397,0.285381317,-0.288045943,9.672574997,2.71502471,2.178723574,-0.303234309,0.176398173,-0.386637062,10.3166151,1.695094824,1.991975784,-0.412217438,0.223295555,-0.529194474,10.83376312,0.995987892,1.268926859,-0.315491587,0.180395097,-0.60460335,9.148244858,0.969651699,0.9648633,0.138826951,0.341338426,-0.482297063,8.599972725,2.762908697,1.130063176,0.377577305,0.402891248,-0.340805531,8.078036308,3.34230566,1.644816518,0.399427265,0.400759578,-0.131898925,8.157045364,3.560178041,2.212242365,0.168937206,0.17559877,0.090597242,8.904036522,3.689464808,2.322375536,-0.076208271,-0.020251149,0.20570904,9.279925346,2.978386879,2.157175779,-0.250741184,-0.114578865,0.306698322,8.925583839,2.643198729,2.52827692,-0.327748835,-0.317623258,0.276854515,9.852140427,2.53067112,2.260126352,-0.319222063,-0.415947944,0.225693718,9.435548782,2.070984364,2.126051188,-0.262199074,-0.25660339,0.226493105,9.983820915,1.278503656,2.300827742,-0.007194487,-0.082869835,0.268594176,9.102754593,2.595314741,2.250549555,-0.033307809,-0.183592647,0.242480844,9.600749016,1.165976286,1.984793186,0.07993874,-0.116444103,0.295773357,9.13866806,2.79163909,1.185129881,-0.040502299,-0.504146993,0.267528325,10.52730465,0.179565132,1.103726983,0.223562017,-0.25660339,0.282183766,9.770736694,1.647210717,1.304839969,0.341071963,-0.181993872,0.183592647,10.05804157,2.906560898,0.541089594,0.117509954,-0.263264924,0.162275642,10.36928749,2.578555346,-0.246602774,-0.209972441,-0.308030635,0.028777948,9.490615845,1.331176162,-0.272938997,-0.435666144,-0.32934764,0.02691271,10.46745014,1.594538331,-0.555454791,-0.533724368,-0.319488525,0.028511487,10.79306126,1.07739079,-0.08379706,-0.426073521,0.037038282,0.062885143,9.777919769,-0.055066638,0.536301196,-0.220897391,0.227292493,0.064217456,9.832986832,0.943315446,0.59615624,-0.121773355,0.267528325,-0.054358348,10.24718285,2.00873518,0.339976639,-0.182260334,0.15481469,0.059687596,9.744400978,0.124498487,-0.981622696,0.088998467,-0.079139359,0.207307816,10.05804157,-0.035913024,0.18674773,0.214235827,0.03996937,0.122572735,10.92713642,2.22900176,1.30005157,-0.11298009,0.087666154,0.203044415,10.21127033,0.864306808,1.549048543,-0.263531387,0.156679943,0.249142408,10.22084713,0.1316811,1.778891921,-0.238483921,0.208640128,0.292842269,9.495404243,0.062249243,2.351106167,-0.231822357,0.287513018,0.256869823,10.32379818,-0.502782345,1.446097851,-0.058621746,0.123638593,0.208640128,10.95107841,1.929726601,1.058237195,-0.272591114,0.583019912,0.325350702,9.425971985,0.454898328,1.510741234,-0.472437978,0.395430326,0.54438287,9.428366661,-0.567425787,2.157175779,-0.398094952,0.352529854,0.559837699,9.267954826,-1.594538331,1.010353088,-0.058888208,0.084468603,0.482830018,8.865729332,-0.524330199,0.74220252,-0.334143966,0.266196012,0.098857582,9.038111687,-1.584961534,1.877054095,-0.337341517,0.250474721,-0.136428788,9.524134636,-1.07739079,2.142810583,-0.128967836,0.104453288,-0.306165397,9.758766174,-0.952892303,2.245761156,0.074076563,-0.099124044,-0.296839207,9.871294022,-0.098162271,2.449268341,0.069280244,-0.222496167,-0.239549771,10.08916569,-0.569819987,2.181117773,0.001332312,-0.229157731,-0.240615621,8.927978516,-0.160411507,3.086126089,-0.087133229,-0.215301678,-0.270725876,10.0317049,-1.18991828,2.408566952,0.054624807,-0.320287883,-0.273923427,0,HIGHKNEES
9.971850395,1.101332784,0.524330199,-0.104986221,0.000266462,-0.008260337,9.967061996,1.063025594,0.553060591,-0.078339972,-0.002398162,-0.0063951,10.00536919,0.950498104,0.553060591,-0.052226644,-0.032774884,-0.005062787,10.08677197,0.883460402,0.524330199,0.011990812,-0.043433387,-0.022382848,10.06522369,0.622492433,0.440533102,0.107650839,-0.025313934,0.015188362,10.11789608,0.440533102,0.193930343,0.228358343,0.031442571,0.058355279,9.974244118,0.830788016,0.14844051,0.308030635,0.124970905,0.08313629,9.832986832,1.108515382,-0.232237563,0.257136285,0.229690656,0.139626339,9.955090523,0.799663365,-0.045489833,0.189987749,0.303767234,0.172401235,10.31900978,1.350329757,-0.110133275,-0.07993874,0.232621744,0.008793262,9.50976944,2.60010314,-0.459686726,-0.497218996,0.083935678,-0.073810108,11.10909557,0.304063618,2.063801765,-0.321886688,0.38743645,-0.048229709,10.40759468,0.462080926,1.812410712,-0.05249311,0.283782542,-0.207307816,9.366117477,1.22583127,1.620874524,-0.043966308,0.207840726,-0.342404276,9.871294022,2.398990154,1.611297727,-0.147620216,0.181727409,-0.404490054,9.344569206,2.183511972,2.30561614,-0.316024512,0.181194484,-0.365320057,9.440337181,1.956062794,2.164358377,-0.379709035,0.090064317,-0.352529854,10.44590187,0.500388145,2.00873518,-0.081803977,0.242747322,-0.411684513,10.36449909,1.271321058,1.537077546,0.292575806,0.402624816,-0.519601822,10.17535686,2.379836559,1.395819545,0.330946386,0.589415014,-0.590214431,8.841787338,2.691082716,1.59932673,0.252073497,0.729041338,-0.489491582,8.154650688,2.959233284,2.087743998,0.206508413,0.591280222,-0.316557437,8.190564156,3.49553442,2.406172752,0.118309341,0.384238869,-0.113779478,8.281543732,3.301604033,2.767697096,-0.001598775,0.046098009,0.065549769,9.011775017,3.569754839,2.317587137,-0.186523736,-0.212104142,0.177730486,8.872911453,3.145981073,2.719813108,-0.279785603,-0.259800911,0.21663399,8.595184326,3.387795448,2.274491549,-0.544116378,-0.596875966,0.287246555,9.971850395,2.121262789,1.989581585,-0.517203629,-0.526263416,0.240082696,9.940725327,1.903390408,2.250549555,-0.340272576,-0.175332308,0.211304754,8.904036522,2.205059767,3.074155092,-0.215834603,-0.191320062,0.183326185,9.552865028,1.537077546,3.129221678,-0.03437366,-0.122572735,0.215301678,8.860940933,3.021482468,2.56897831,-0.053825419,-0.379709035,0.211038291,10.34774017,0.900219858,1.613691926,0.061819296,-0.172134757,0.230223581,8.906430244,2.995146275,1.510741234,0.042633995,-0.462845296,0.177996933,10.22084713,1.563413739,0.703895271,0.040235836,-0.34799999,0.281650841,9.382876396,1.738190413,0.845153213,-0.025047474,-0.207840726,0.373313934,10.83855152,2.841917515,0.155623108,-0.354928017,-0.279519141,0.188122496,10.73799419,1.812410712,-1.908178806,-0.701595724,-0.233421117,-0.058888208,8.616731644,-0.615309834,0.979228497,-0.415681452,-0.008526799,-0.00106585,10.33337498,0.495599747,1.340752959,0.027179174,0.100989282,-0.061286367,11.06360626,2.8969841,1.15400517,-0.223562017,0.252339959,-0.014122511,9.880870819,0.37349546,0.986411095,-0.159344569,0.163075045,0.190787122,9.684545517,0.280121595,0.732625723,0.046098009,-0.044232771,0.253139347,10.66856289,0.486022949,0.59615624,0.145222053,-0.119641654,0.340539038,10.37407589,0.641646028,0.605733037,0.118842266,0.021849923,0.333078086,10.37647057,0.390254885,1.15161097,0.096725874,-0.038104136,0.300303191,10.29267311,0.840364814,1.458068848,0.017852986,0.146021441,0.262465537,9.782708168,-0.122104287,1.659181833,0.080471672,0.179062784,0.298437983,10.56321812,0.833182216,1.613691926,-0.012257273,0.366918862,0.313626319,10.05804157,1.163581967,2.032677174,-0.049828485,0.396496177,0.407154679,10.35971069,0.064643443,0.974440098,0.038903523,0.189454809,0.394364446,8.094796181,0.354341865,0.179565132,-0.390367538,0.173200607,0.269127101,8.611943245,-1.367089152,1.26653266,-0.647770226,0.443127096,0.15428178,8.611943245,-1.817199111,3.074155092,-0.35839203,0.262465537,-0.167871356,9.31823349,-0.897825658,1.991975784,-0.079139359,-0.177464008,-0.301635504,10.0269165,-0.428562105,1.731007814,0.051693719,-0.304566622,-0.373047471,10.53927612,0.110133275,1.489193439,0.057822358,-0.341071963,-0.252872884,9.686940193,0.392649084,1.771709204,-0.044232771,-0.302701384,-0.164407358,10.13704967,0.18435353,2.147598982,-0.28884533,-0.150018379,-0.18492496,8.803479195,-1.630451322,2.379836559,-0.023715161,-0.411951005,-0.296572745,0,HIGHKNEES
9.971850395,1.22583127,0.665588081,-0.065283306,0.013589587,-0.016254211,9.971850395,1.000776291,0.770932972,-0.022116385,-0.0021317,-0.015721286,10.00776291,0.679953277,0.531512797,0.082869835,-0.006661562,0.026379786,10.15859795,0.696712673,0.160411507,0.184125587,0.115111791,0.066349156,10.23760605,0.758961916,0.299275219,0.257402748,0.240349159,0.121506892,10.20648193,1.034295082,0.553060591,0.168670759,0.249675348,0.0,9.457097054,3.167528868,-0.356736064,-0.325084209,-0.110049009,-0.251007646,10.54406452,1.44849205,0.919373453,-0.447656959,0.058621746,-0.193718225,10.41717148,1.30005157,1.458068848,-0.23475343,0.248609498,-0.280851454,9.009381294,2.049436569,1.314416766,-0.35732618,0.111114852,-0.23475343,10.08198357,1.632845521,1.379060149,-0.324284822,0.130833074,-0.193984687,9.504981041,1.426944256,2.190694571,-0.255271077,0.159877479,-0.20411025,10.20887566,1.268926859,1.309628367,-0.089531392,0.058355279,-0.201445624,9.931148529,1.094150186,2.006340981,0.134830013,0.323751897,-0.2669954,9.993397713,2.580949545,1.496376038,0.125237361,0.258202136,-0.351996928,10.00297451,1.48679924,1.774103403,0.243280247,0.527862132,-0.390634,9.96466732,1.934514999,1.230619669,0.421010703,0.535323083,-0.364254236,9.212887764,2.351106167,1.666364431,0.515604913,0.699996889,-0.298437983,8.329427719,3.347094059,1.972822189,0.374379784,0.418079644,-0.249941811,8.113949776,3.526659012,2.087743998,0.157212853,0.267261863,-0.075142421,8.413225174,3.332728863,2.432508945,0.006928025,0.080738127,0.086600304,8.70771122,3.203441858,2.434903145,-0.181727409,-0.162275642,0.229957119,9.528923035,2.300827742,2.252943754,-0.170003071,-0.282983154,0.251807034,8.856152534,3.057395458,2.212242365,-0.219831541,-0.474569678,0.241681471,9.945513725,2.135627985,1.944091797,-0.115911178,-0.381840736,0.289644688,9.382876396,3.040636063,1.740584612,-0.218765706,-0.384771824,0.233687595,9.921571732,2.190694571,2.078166962,-0.226759583,-0.113246553,0.190787122,9.263166428,3.193865061,1.59693253,-0.417813152,-0.292309314,0.146021441,9.545681953,1.158793569,2.264914751,-0.213436455,-0.114578865,0.266196012,9.62469101,2.080561161,1.149216771,-0.138027564,-0.383972436,0.300569683,10.12507915,0.629675031,1.647210717,0.081803977,-0.082603365,0.295773357,9.210494041,2.212242365,1.096544385,0.067415006,-0.402891248,0.279785603,10.42914295,0.452504128,1.060631394,0.228358343,-0.193718225,0.352263391,9.983820915,1.101332784,0.407014281,0.335476279,-0.130300149,0.405022949,9.895236015,2.111685991,0.007182605,0.184392035,-0.156413481,0.378376722,10.25436592,1.271321058,-0.380678058,-0.155880541,-0.31788975,0.35013172,10.6446209,0.33279404,-0.825999558,-0.256869823,-0.332811654,0.138560489,10.15141487,0.586579442,-0.404620081,0.023715161,-0.075142421,0.07194487,9.579200745,0.0,0.256179571,0.252339959,0.099390499,-0.031442571,11.0133276,1.089361787,0.66798228,0.232888207,0.231822357,-0.134830013,9.940725327,1.568202138,0.227449164,0.0,0.161209792,0.018385911,10.30703831,0.974440098,0.63206923,-0.265396625,0.0042634,0.107384384,10.63264942,0.426167905,0.624886632,-0.467108727,0.08020521,0.226493105,10.02452278,0.107739076,1.125274777,-0.426606447,0.172934145,0.332811654,10.18493366,-0.617704034,1.18752408,-0.310695261,0.196116373,0.341871351,9.923966408,-0.586579442,1.419761658,-0.21610108,0.29603982,0.227825418,9.840168953,-0.174776718,1.642422318,-0.156413481,0.291509956,0.135629401,9.962273598,0.672770679,1.443703651,-0.056223582,0.285381317,0.206508413,10.60391903,0.213083953,1.122880578,0.00106585,0.260333836,0.47989893,10.05804157,-0.591367841,0.945709646,0.176131696,0.302701384,0.458581924,8.983044624,-0.639251828,0.885854602,0.019984685,0.302434921,0.287246555,8.918401718,-1.00556469,0.720654726,-0.29603982,0.310428768,0.101255737,8.585607529,-1.400607944,2.121262789,-0.381041348,0.272058189,-0.111381322,9.612719536,-1.714248419,1.601720929,-0.072211333,-0.045032158,-0.23475343,10.12507915,-0.660799682,1.699883223,0.085001536,-0.071145482,-0.21663399,10.13226128,-0.636857629,1.695094824,0.173733547,-0.167071983,-0.146287903,9.871294022,-0.086191259,2.542642117,0.024781011,-0.096725874,-0.115111791,9.976638794,-0.622492433,1.654393315,-0.103387438,-0.220364481,-0.171068922,8.779537201,0.033518825,3.201047659,-0.258468598,-0.123638593,-0.282716691,10.61349583,-1.110909581,0.732625723,-0.143623278,-0.448989272,-0.282716691,0,HIGHKNEES
10.02931118,0.509964943,0.600944638,0.09352833,0.104453288,0.026646247,10.11071396,0.541089594,0.440533102,0.178263396,0.168937206,0.05808882,10.09874249,0.758961916,-0.011971008,0.202245027,0.208906576,0.061552834,10.20648193,1.048660398,-0.10295067,0.14388974,0.281117916,0.057289433,9.935936928,1.345541358,-0.174776718,-0.096725874,0.189987749,-0.006128637,9.370905876,2.097320795,0.881066203,-0.376511484,0.105785601,-0.008793262,11.17134476,-0.222660765,2.494758129,-0.147620216,0.248609498,-0.03437366,10.10113716,0.682347476,1.872265697,0.070346095,0.209705979,-0.26592955,9.576807022,1.309628367,1.795651317,0.103653908,0.18385911,-0.372514546,10.05325317,2.037465572,1.78128612,0.095127106,0.280584991,-0.398627877,9.272743225,1.78368032,2.650381327,0.066882081,0.426872909,-0.347200602,9.145850182,2.30561614,2.353500366,-0.018652374,0.275522202,-0.277653903,9.193734169,2.22900176,2.554613113,-0.135362938,0.242214397,-0.3168239,9.96466732,2.262520552,1.980004787,-0.171068922,0.166805506,-0.32615009,9.928754807,1.398213744,1.915361404,-0.022915773,0.32721591,-0.356260329,9.425971985,2.485181332,2.013523579,0.0042634,0.290710568,-0.378376722,9.653421402,2.348711967,1.869871497,0.007727412,0.27845329,-0.356526792,9.066842079,2.518700123,1.644816518,0.069280244,0.213702917,-0.259534448,8.415618896,2.434903145,1.934514999,0.246211335,0.220897391,-0.067148544,8.283937454,3.275267839,2.626439333,0.168670759,0.086600304,0.11191424,8.935160637,2.906560898,2.63841033,-0.037304748,-0.135895863,0.248875946,8.930372238,2.815581083,2.559401512,-0.226226643,-0.293375194,0.309096456,9.437943459,2.329558372,2.48996973,-0.277920365,-0.369583488,0.304833084,9.488221169,2.317587137,2.631227732,-0.261666149,-0.333344579,0.237151608,9.40681839,2.288856745,2.82276392,-0.292842269,-0.293375194,0.204376727,9.351752281,2.547430515,2.647987127,-0.372781008,-0.280052066,0.19638285,9.327810287,1.9321208,2.554613113,-0.407687575,-0.347467095,0.154548228,9.907206535,1.941697598,1.391031146,-0.329880536,-0.412483901,0.169470131,9.701305389,1.029506683,1.798045516,-0.160676882,-0.309629381,0.161742732,9.634267807,1.903390408,0.70628953,-0.090863705,-0.418879032,0.191053599,9.931148529,1.453280449,0.89064306,-0.091929555,-0.188921899,0.237684533,10.54645824,2.463633537,-0.107739076,-0.334943324,-0.251540571,0.149751917,10.24000072,1.640028119,0.229843363,-0.414615631,-0.186523736,0.068214394,9.009381294,-0.304063618,0.612915635,-0.270459414,-0.335209787,0.180661559,10.80263805,1.41018486,-0.644040287,-0.227825418,-0.468973964,0.098058186,10.51054573,1.343147159,-0.916979253,-0.434866786,-0.118042871,0.092995405,10.56321812,-1.096544385,0.679953277,-0.137761101,0.199313939,0.049828485,10.19451046,0.770932972,1.165976286,0.064483918,0.218499228,0.137494639,9.373299599,0.105344877,-0.160411507,0.221430331,-0.029843798,0.195317,10.40280628,0.141257897,0.090979666,0.278186828,-0.012523737,0.135362938,10.82179165,1.520318031,0.414196908,0.053825419,0.045565084,0.179329246,10.18732834,1.134851575,0.675164878,-0.098324656,0.112180702,0.245411947,10.3357687,0.402225882,1.194706678,-0.231822357,0.199047476,0.289111793,9.758766174,-0.026336219,1.568202138,-0.249941811,0.181194484,0.270992339,10.54645824,0.009576807,1.209071875,-0.243546709,0.309629381,0.287513018,10.43393135,0.555454791,1.59693253,-0.191586524,0.522000015,0.445258796,10.38604736,-0.10055647,1.249773264,0.010125575,0.374113321,0.493222058,8.815450668,-0.514753342,1.436521053,0.029843798,0.303767234,0.3885023,9.064447403,-1.247379065,0.1316811,-0.12337213,0.283782542,0.264330775,8.358158112,-1.108515382,1.56101954,-0.505745769,0.344269514,0.071411945,8.825027466,-2.169146776,1.956062794,-0.167338446,-0.050361406,-0.094594181,9.911994934,-1.11569798,1.424550056,0.053558957,-0.248076573,-0.24461256,9.986215591,-1.144428372,1.745373011,0.308297068,-0.343470156,-0.25660339,9.612719536,-0.691924274,2.063801765,0.496686071,-0.452453285,-0.27632159,10.65419769,-0.047884032,0.955286503,0.413549751,-0.417280257,-0.269926488,9.931148529,0.284909993,1.623268723,0.214768767,-0.105252676,-0.266196012,9.974244118,0.306457818,1.422155857,-0.046098009,-0.098324656,-0.338407338,9.610325813,-0.48123455,1.625662923,0.052759573,-0.277653903,-0.240082696,11.04684639,1.118092179,0.08379706,-0.178796321,0.046897396,-0.238217458,9.119514465,0.260968,1.084573388,-0.287513018,-0.150551304,-0.183059722,0,HIGHKNEES
9.99100399,1.242590666,0.196324542,-0.11298009,0.031442571,-0.018652374,9.971850395,1.273715258,0.179565132,-0.114045948,0.033574272,-0.016520673,10.00297451,1.22822547,0.179565132,-0.112713635,0.043433387,-0.008793262,10.0412817,1.043871999,0.213083953,-0.078339972,0.039436448,0.022116385,10.18253994,0.622492433,0.213083953,0.032774884,0.028511487,0.02904441,10.16817474,0.462080926,0.129286885,0.18385911,0.086866774,0.077540584,9.9526968,0.471657723,0.174776718,0.292842269,0.104453288,0.083402753,10.23521233,0.634463429,0.179565132,0.36984992,0.149751917,0.096725874,9.878476143,0.900219858,-0.021547815,0.379975498,0.257402748,0.089797854,9.473855972,1.206677675,-0.18674773,0.293908119,0.331212848,0.11298009,10.42435455,1.204283476,-0.002394202,0.142557427,0.322952509,0.104186833,9.816226959,2.195482969,-0.634463429,-0.293641627,0.147087291,-0.02158346,9.562441826,1.357512355,0.541089594,-0.538787127,0.150018379,0.083402753,11.52568722,-0.18674773,2.571372509,-0.192119434,0.353862166,-0.003464012,9.91438961,0.251391172,2.240972757,0.04103522,0.281117916,-0.148419604,9.090784073,1.606509328,1.52510643,-0.075675346,-0.076474734,-0.299770296,10.45308495,1.259350061,1.142034173,0.017852986,0.061819296,-0.299770296,9.83777523,1.716642618,1.625662923,-0.037038282,0.099923424,-0.245411947,10.09874249,0.636857629,1.774103403,0.07274425,0.244346097,-0.235552832,10.24718285,1.493981838,1.903390408,0.041834611,0.248609498,-0.395963252,10.55842972,1.522712231,1.570596337,0.10285452,0.448456347,-0.555041373,9.672574997,1.800439715,1.333570361,0.048496172,0.511607945,-0.628584981,8.588001251,2.585737944,1.288080573,0.13243185,0.60460335,-0.534523726,8.07324791,3.713406801,2.195482969,-0.021316998,0.57555896,-0.381574243,7.826645374,3.095702887,2.631227732,0.02691271,0.297372133,-0.143090352,8.279149055,3.653551817,2.499546528,-0.133764163,-0.015454824,0.082869835,9.217676163,3.323152065,2.288856745,-0.35839203,-0.208373666,0.211304754,9.536105156,2.169146776,2.075772762,-0.390367538,-0.262199074,0.28777948,8.901641846,2.509123325,2.734178305,-0.428738147,-0.359191418,0.264330775,10.31182671,1.501164436,2.202665567,-0.219565079,-0.27738744,0.264064312,9.282320023,1.912967205,2.595314741,-0.169203669,-0.227292493,0.180395097,9.421183586,1.59693253,2.806004286,0.011191424,-0.082869835,0.217699856,8.365341187,3.471592426,2.63841033,-0.2648637,-0.586750388,0.211837664,11.00135708,0.150834709,1.750161409,-0.047430322,-0.446058184,0.303767234,8.865729332,2.15478158,1.527500629,0.036238898,-0.801519156,0.282183766,10.27591324,0.998382092,0.284909993,0.264597237,-0.612330794,0.266462475,9.495404243,1.496376038,0.253785372,0.260067374,-0.391166925,0.197182223,10.07958889,2.82036972,0.016759412,-0.039702907,-0.361589581,0.147353753,10.15620327,2.130839586,-0.761356115,-0.30749771,-0.357059717,0.115378261,9.746794701,1.103726983,-1.304839969,-0.513739645,-0.370116383,0.256070435,11.14261436,0.241814375,-1.508347034,-0.46124655,-0.220630929,0.096192956,10.21366405,-0.189141929,-0.248996973,-0.14495559,0.264597237,-0.046630934,10.31900978,0.306457818,1.000776291,0.096725874,0.335209787,-0.068480857,10.52730465,1.386242747,0.263362199,0.07194487,0.16573967,0.080471672,9.622296333,0.634463429,-0.553060591,-0.054624807,0.034640122,0.197448686,10.79545593,1.034295082,-0.08379706,-0.336275637,0.103120975,0.213702917,10.46266174,0.119710088,0.474051923,-0.427672267,0.294174582,0.314159274,9.591172218,0.004788403,1.134851575,-0.391433388,0.246211335,0.308830023,10.60391903,-0.85473001,1.15400517,-0.247277185,0.334676892,0.27525574,9.56004715,-0.229843363,1.745373011,-0.137228176,0.433800906,0.231289431,9.900024414,-0.430956304,1.690306425,-0.064217456,0.362388968,0.188921899,9.816226959,0.354341865,1.922544003,-0.114578865,0.452986211,0.238483921,10.03888798,-0.584185243,1.778891921,0.075408876,0.328548223,0.344535977,10.41956615,-0.107739076,1.031900883,0.15481469,0.386370599,0.296306252,8.523358345,-0.723048925,0.933738649,0.055690661,0.354128659,0.142557427,8.839392662,-1.019929886,1.206677675,-0.024514547,0.284315467,-0.049029093,8.999804497,-1.060631394,1.807622313,0.067681469,0.083669223,-0.21503523,10.00536919,-0.517147541,2.092532396,0.243013784,-0.22542727,-0.280584991,10.42674828,0.687135875,1.78368032,0.150551304,-0.275522202,-0.261932611,9.533711433,0.603338838,2.700659513,-0.146021441,-0.172401235,-0.258202136,0,HIGHKNEES
9.998186111,1.043871999,0.586579442,-0.177197546,0.008793262,-0.016787136,10.09395409,0.778115571,0.59615624,-0.134030625,-0.005862175,-0.000266462,10.13944435,0.450109929,0.440533102,-0.016520673,-0.00319755,0.024781011,10.16338634,0.191536129,0.37349546,0.152416542,0.063151613,0.07274425,9.907206535,0.304063618,0.430956304,0.312826961,0.066082694,0.094594181,10.05804157,0.869095206,-0.08379706,0.365586549,0.127635539,0.124171518,9.461885452,0.979228497,-0.395043284,0.270192951,0.298437983,0.167604893,10.42914295,0.641646028,0.225054964,0.181460962,0.296306252,0.124704443,9.320627213,2.645592928,-0.687135875,-0.240349159,0.0042634,0.027712099,10.7188406,1.010353088,1.304839969,-0.330946386,0.187589586,0.131366,11.13543224,0.402225882,2.513911724,-0.113246553,0.314159274,-0.107384384,9.809044838,0.972045898,1.838746905,-0.03011026,0.233954057,-0.288578868,9.47146225,1.656787634,1.843535304,-0.100722812,0.118842266,-0.310695261,9.856928825,1.41018486,1.778891921,-0.08020521,0.222496167,-0.265396625,9.555258751,1.369483352,2.138022184,-0.136961713,0.128967836,-0.200113311,10.13465595,0.914585054,1.850717902,-0.106851459,0.157479316,-0.264064312,10.11550236,1.426944256,1.764526606,-0.118042871,0.153482378,-0.394630939,10.0269165,1.369483352,1.539471745,-0.031176111,0.23635222,-0.41754669,9.459490776,1.587355733,1.458068848,-0.009059724,0.207840726,-0.397029072,9.052476883,1.905784607,1.019929886,0.184658498,0.289378256,-0.310961694,8.525752068,2.949656487,1.810016513,0.195317,0.269660026,-0.190520674,8.420407295,3.105279684,2.310404539,0.024514547,0.040502299,-0.012523737,9.378087997,2.837129116,1.438915253,-0.212370604,-0.107384384,0.156413481,9.583989143,2.375048161,1.613691926,-0.335742712,-0.027445635,0.252872884,10.20169353,1.422155857,2.200271368,-0.18599081,0.064217456,0.241415009,9.528923035,1.273715258,3.236960649,-0.016520673,0.08207044,0.125770286,8.750806808,2.169146776,4.153939724,0.08313629,-0.068214394,0.120707504,8.894459724,3.138798475,3.052607059,-0.109516084,-0.42074427,0.108183771,9.689333916,1.522712231,2.130839586,-0.083935678,-0.446857601,0.115378261,9.742006302,1.826775908,0.565031588,0.049562022,-0.50174886,0.154015318,10.12268448,0.919373453,0.385466486,0.27738744,-0.034107197,0.256070435,9.54807663,1.771709204,1.146822572,0.222496167,-0.038370594,0.387169987,10.01733971,3.663128614,0.361524463,-0.313359886,-0.190254211,0.147886679,8.63109684,1.391031146,-0.605733037,-0.712520659,-0.579822361,0.241947934,12.53364563,-0.265756398,-0.517147541,-0.601139367,-0.357592642,0.05808882,9.775525093,0.768538773,0.665588081,-0.383705974,-0.035705972,0.016520673,9.981427193,0.663193882,0.548272192,-0.188388973,-0.096459419,0.005595712,9.911994934,0.079008654,0.14844051,-0.026646247,0.206774876,-0.032508422,10.62786102,0.720654726,0.442927301,0.143356815,0.189987749,-0.016520673,9.921571732,1.079784989,-0.454898328,0.256869823,0.114578865,0.148952529,10.46266174,0.766144514,1.149216771,0.019185297,0.169203669,0.142024502,10.85770512,1.158793569,2.04704237,-0.198780999,0.377577305,0.231822357,9.387664795,0.136469498,2.202665567,-0.17453292,0.264330775,0.302967817,9.770736694,0.768538773,1.903390408,-0.285381317,0.196649313,0.290710568,9.540893555,-0.545877993,2.30561614,-0.237151608,0.147353753,0.235019907,10.20169353,0.560243189,1.798045516,-0.242480844,0.258202136,0.237684533,9.959878922,0.260968,1.939303398,-0.260067374,0.253405809,0.297372133,10.22084713,-0.1316811,1.63763392,-0.160943344,0.301102608,0.319488525,9.06205368,-0.718260527,1.556231141,-0.065283306,0.157212853,0.246211335,9.129091263,-0.730231524,1.44849205,-0.090064317,0.168670759,0.117509954,8.923190117,-1.082179189,1.915361404,-0.043166921,0.083402753,-0.015987748,9.758766174,-0.591367841,1.757344007,0.024248086,0.041568145,-0.156147003,9.516951561,-0.311246216,2.217030764,0.103920363,-0.087666154,-0.204376727,10.43632507,0.179565132,2.078166962,0.044232771,-0.083935678,-0.18385911,9.639056206,-0.026336219,2.279279947,-0.063684531,-0.086866774,-0.170003071,9.536105156,0.189141929,2.961627483,-0.226226643,0.054358348,-0.236085743,8.827422142,-1.611297727,2.525882721,-0.002398162,-0.445525289,-0.289111793,11.00614548,1.604115129,1.18991828,-0.130833074,-0.028511487,-0.259534448,9.423578262,-0.086191259,1.520318031,-0.290444106,-0.385571182,-0.242480844,10.21605873,0.033518825,0.723048925,-0.07301072,-0.060753446,-0.055424199,0,HIGHKNEES
9.935936928,1.120486379,0.464475125,-0.10178867,-0.032508422,-0.013323124,9.9526968,1.130063176,0.40940848,-0.113246553,-0.044232771,-0.015188362,10.09634876,1.113303781,0.234631762,-0.129500762,-0.042633995,-0.03011026,10.13226128,0.799663365,0.395043284,-0.096192956,-0.034906585,-0.031975497,10.23281765,0.258573771,0.160411507,0.047963247,-0.0042634,0.03757121,9.931148529,0.366312861,-0.270544797,0.17346707,0.074875958,0.104719758,9.696516991,0.735019922,-0.782903969,0.203044415,0.149218991,0.20411025,10.0460701,0.035913024,-0.462080926,0.294441044,0.355993867,0.270992339,10.34295177,0.679953277,-0.509964943,0.183592647,0.257935673,0.132165387,8.769960403,2.655169725,-0.536301196,-0.280851454,0.044499233,0.060486984,11.92551899,0.407014281,2.264914751,-0.231022969,0.343203664,0.074076563,10.62307262,0.763750315,2.238578558,-0.084202148,0.308030635,-0.137494639,9.375694275,0.936132848,1.529894829,-0.017586524,0.075142421,-0.274722815,9.694122314,1.723825216,1.163581967,-0.07301072,-0.108983152,-0.301635504,9.562441826,1.362300754,1.731007814,-0.049029093,-0.030376723,-0.264064312,10.59194851,1.403002143,0.938527048,-0.07194487,-0.00106585,-0.248609498,10.20648193,0.507570744,1.386242747,0.058621746,0.284049004,-0.301635504,9.900024414,2.11647439,1.173158884,0.078872897,0.341871351,-0.366918862,9.442731857,2.300827742,1.544260144,-0.045298621,0.415148526,-0.389301687,9.710882187,2.367865562,1.144428372,-0.166006133,0.363721281,-0.299770296,9.423578262,1.479616642,1.247379065,-0.062885143,0.377577305,-0.23475343,8.939949036,2.389413357,1.331176162,-0.009326187,0.271525264,-0.144156188,8.528146744,2.317587137,1.848323703,0.046098009,0.200379789,-0.018119449,8.655038834,2.966415882,1.944091797,-0.209705979,-0.135096475,0.092995405,9.490615845,2.391807556,1.666364431,-0.426872909,-0.21450229,0.197182223,9.605537415,1.527500629,1.675941229,-0.419145465,-0.349598765,0.195317,10.15859795,1.623268723,1.719036818,-0.350664616,-0.28564778,0.158545166,9.873687744,1.175553083,2.322375536,-0.172134757,-0.1334977,0.159078106,9.761159897,1.903390408,1.936909199,-0.107917301,-0.232888207,0.14495559,9.404424667,1.034295082,2.396595955,-0.016520673,-0.023182238,0.118575804,9.414001465,2.7509377,1.379060149,-0.166006133,-0.601405799,0.160143942,10.65659142,-0.107739076,0.663193882,0.015721286,-0.170802444,0.114045948,9.210494041,2.063801765,0.052672438,0.124437973,-0.316024512,0.159877479,9.804255486,1.908178806,0.256179571,-0.027712099,-0.188921899,0.265396625,10.61349583,1.836352706,-0.842759013,-0.24514547,-0.373313934,0.247010723,10.46984386,1.201889277,-0.70628953,-0.356526792,-0.217433393,0.195849925,9.87608242,-0.201112941,-0.234631762,-0.229157731,-0.271258801,0.147886679,10.18014526,0.825999558,-0.215478152,-0.114578865,-0.170802444,-0.009326187,9.375694275,0.723048925,-0.093373865,-0.027712099,-0.012257273,-0.062352221,10.58716011,1.209071875,0.387860686,-0.084202148,0.153215915,-0.14388974,10.75954247,0.620098233,-0.052672438,-0.090863705,0.256070435,-0.078606427,9.703699112,0.172382519,0.201112941,0.13243185,0.131632462,0.007194487,10.79545593,1.893813491,1.101332784,-0.173200607,0.095660031,0.071411945,10.32379818,1.56101954,0.876277804,-0.57236141,0.001332312,0.230490044,10.18493366,-0.023942016,0.627280831,-0.603803992,-0.002398162,0.313093394,10.23521233,-0.258573771,0.682347476,-0.569696784,0.232355282,0.342670739,10.01494598,-1.204283476,1.383848548,-0.422609508,0.312826961,0.279519141,9.746794701,-0.639251828,1.697489023,-0.172934145,0.23528637,0.19478406,10.35731697,0.086191259,1.278503656,-0.060486984,0.211304754,0.296839207,10.0317049,-0.229843363,1.216254473,0.111381322,0.179595709,0.3365421,10.36210537,0.308852017,0.363918662,0.166805506,0.114578865,0.302701384,8.851364136,-0.380678058,-0.177170932,-0.14388974,0.309362948,0.140159264,8.655038834,-1.012747288,0.81881696,-0.305898935,0.385304749,0.02691271,8.975862503,-1.383848548,1.067813993,-0.159877479,0.205975503,-0.114845328,10.27112484,-0.696712673,1.55862534,-0.016254211,0.002398162,-0.232355282,10.06522369,-0.375889659,1.826775908,0.052759573,-0.21556814,-0.217433393,9.744400978,-0.292092621,2.310404539,-0.000532925,-0.21503523,-0.187589586,9.627084732,-0.842759013,2.449268341,-0.048229709,-0.195050538,-0.226493105,9.066842079,-1.170764685,1.805228114,0.107117914,-0.497218996,-0.313359886,11.27429581,0.85473001,0.770932972,0.111114852,-0.226759583,-0.24461256,0,HIGHKNEES
9.979032516,1.055842996,0.196324542,-0.131099537,-0.032774884,-0.022649311,10.00297451,1.029506683,0.143652096,-0.12337213,-0.039436448,-0.02691271,10.00297451,1.070208192,0.023942016,-0.129500762,-0.027179174,-0.034107197,10.12986755,0.823605359,0.095768064,-0.087133229,-0.027445635,-0.03011026,10.15859795,0.701501071,0.146046311,-0.011457887,-0.02158346,-0.038903523,10.07480049,0.565031588,0.04309563,0.065549769,0.050627869,-0.00319755,10.0508585,0.701501071,-0.284909993,0.145754978,0.136162326,0.03650536,9.880870819,1.122880578,-0.600944638,0.137761101,0.27845329,0.087932616,10.31422138,0.59376204,-0.217872351,0.151350692,0.435133219,0.141491577,9.983820915,1.489193439,-0.395043284,-0.137494639,0.24514547,-0.062085759,9.239224434,2.408566952,-0.363918662,-0.458048999,0.07087902,-0.096992344,11.54484081,-0.045489833,1.704671621,-0.150551304,0.229157731,-0.112713635,10.16817474,1.00317049,1.355118155,0.116710559,0.187589586,-0.291243494,9.665391922,1.642422318,1.122880578,0.114845328,0.266196012,-0.345601827,9.646238327,2.279279947,1.522712231,0.009059724,0.184392035,-0.324551284,9.967061996,1.44849205,1.738190413,0.049828485,0.421810091,-0.292575806,9.366117477,2.310404539,2.161964178,-0.062085759,0.272857577,-0.281384379,10.64222622,1.26653266,1.752555609,0.045831546,0.44046247,-0.378643185,9.045293808,1.991975784,2.04704237,0.125503823,0.362388968,-0.439130157,9.916783333,2.408566952,1.079784989,0.111647777,0.354928017,-0.450588048,8.659827232,2.662352324,1.283292055,0.100989282,0.408486992,-0.321886688,8.750806808,2.863465309,1.422155857,0.150018379,0.351730466,-0.182526797,8.300697327,3.102885485,2.202665567,0.057022974,0.189721286,0.005062787,8.997409821,3.253720045,2.19308877,-0.189721286,-0.160143942,0.14388974,9.476250648,2.475604534,1.881842494,-0.345335364,-0.299503833,0.248609498,9.715670586,1.893813491,2.011129379,-0.258735061,-0.313093394,0.229424208,9.727641106,2.178723574,1.759738207,-0.120174579,-0.219298616,0.218765706,9.244012833,2.375048161,2.552218914,-0.116977029,-0.13456355,0.192119434,9.722852707,2.794033289,1.833958507,-0.225693718,-0.152416542,0.217433393,8.851364136,2.67432332,2.559401512,-0.378643185,-0.220098019,0.1931853,10.48899746,1.283292055,1.00556469,-0.259534448,-0.35945788,0.220897391,9.358934402,1.07739079,1.853112102,0.010658499,-0.267261863,0.119641654,9.682151794,2.365471363,0.641646028,0.010125575,-0.501482368,0.17346707,9.885659218,1.532289028,0.85473001,-0.021849923,-0.265396625,0.13243185,9.873687744,2.322375536,0.440533102,-0.101522207,-0.363454819,0.15534763,10.92234802,1.565807939,-0.342370838,-0.158545166,-0.180128634,0.091396637,9.670180321,1.89860189,-0.179565132,-0.201445624,-0.025047474,0.035705972,9.222464561,1.829170108,0.407014281,-0.24461256,-0.114312403,0.148153126,10.13944435,0.988805294,-0.114921682,-0.243546709,-0.090863705,0.131099537,9.739612579,0.471657723,-0.517147541,-0.111114852,0.023981623,0.014122511,11.12346077,1.522712231,-0.541089594,-0.053292494,0.076474734,-0.053026035,9.852140427,1.199495077,-0.385466486,0.0021317,0.175865233,0.02797856,10.3261919,0.476446152,1.161187768,0.08020521,0.102055125,0.041834611,10.71165848,1.814804912,1.695094824,-0.169736609,0.130833074,0.120441042,10.28309631,0.435744703,1.192312479,-0.177464008,0.08233691,0.257402748,9.519346237,1.134851575,1.568202138,-0.202511474,0.108983152,0.275788665,10.23760605,0.04309563,1.256955862,-0.191320062,0.125503823,0.261399686,9.643844604,0.723048925,1.982398987,-0.18492496,0.221963242,0.228624806,10.37407589,0.608127236,1.144428372,-0.118842266,0.119108729,0.272324651,10.11310768,0.984016895,1.534683347,-0.160943344,0.229690656,0.340006143,10.19929886,0.064643443,0.490811348,0.046897396,0.082869835,0.363721281,9.212887764,-0.253785372,0.311246216,-0.088732004,0.277653903,0.237950996,8.954314232,-0.603338838,0.802057564,-0.235819295,0.196649313,0.159344569,9.0740242,-1.00317049,1.295263171,-0.20624195,0.069546707,0.033574272,9.787496567,-0.873883605,1.192312479,-0.000266462,-0.05808882,-0.111647777,9.9526968,-0.284909993,1.474828243,0.150018379,-0.110581927,-0.177996933,10.30224991,0.090979666,1.139639974,0.153748855,-0.137228176,-0.150817752,10.01255131,0.387860686,1.800439715,0.048762634,-0.022915773,-0.105785601,10.05804157,-0.155623108,1.668758631,-0.056756508,0.027712099,-0.133764163,8.959102631,-0.119710088,2.365471363,-0.07274425,-0.140159264,-0.2051761,0,HIGHKNEES
9.916783333,1.163581967,0.562637389,-0.130300149,-0.024514547,-0.027445635,9.979032516,1.182735682,0.48362875,-0.102055125,-0.023448698,-0.025047474,10.02452278,1.146822572,0.433350503,-0.077274114,-0.027712099,-0.024514547,10.08437729,0.924161851,0.584185243,-0.020251149,-0.011724349,-0.017852986,10.0556469,0.672770679,0.541089594,0.111381322,0.019185297,0.005595712,10.08677197,0.663193882,0.325611442,0.221963242,0.056223582,0.049029093,9.923966408,0.866701007,0.347159237,0.284049004,0.131099537,0.082603365,9.780313492,1.065419793,0.122104287,0.262199074,0.177996933,0.135895863,10.11071396,0.543483794,0.069431849,0.298437983,0.255803972,0.144156188,10.12986755,0.857124209,0.069431849,0.259800911,0.224361405,0.094594181,9.351752281,2.401384354,-0.629675031,-0.178529859,-0.067681469,-0.05249311,9.974244118,2.255337954,0.359130263,-0.568630934,0.107384384,0.109249614,11.37245846,-0.10055647,2.616862535,-0.316557437,0.196649313,-0.032508422,10.07001209,0.189141929,1.594538331,0.0042634,0.104453288,-0.238483921,9.629479408,1.553836942,1.426944256,0.04103522,-0.03011026,-0.377577305,10.49378586,1.355118155,0.998382092,0.202245027,0.182793275,-0.385038286,9.370905876,1.786074519,1.987187386,0.199313939,0.349598765,-0.353062779,10.09634876,1.577778935,1.565807939,0.204376727,0.286980093,-0.37811026,9.224859238,2.274491549,2.128445387,0.178529859,0.417013764,-0.459381312,9.313444138,3.138798475,1.774103403,-0.050094947,0.206508413,-0.432735085,9.459490776,2.351106167,1.63523972,-0.112713635,0.280584991,-0.415681452,9.241618156,2.387019157,1.513135433,-0.07274425,0.124704443,-0.381307811,9.342175484,2.576161146,1.261744261,-0.071411945,0.151883617,-0.341604888,8.913613319,2.729389906,1.431732655,-0.043699846,0.144422665,-0.193984687,8.968679428,2.808398485,1.78368032,-0.021050537,0.116977029,-0.002398162,8.83699894,3.248931646,1.869871497,-0.213702917,-0.070346095,0.13243185,9.378087997,2.430114746,1.958456993,-0.292842269,-0.100189894,0.239816234,9.50976944,2.817975283,1.769315004,-0.323751897,-0.197182223,0.21663399,9.648633003,2.118868589,2.540247917,-0.303234309,-0.132964775,0.172134757,9.63666153,2.85867691,1.714248419,-0.268860638,-0.189188361,0.126569673,8.846575737,2.123656988,2.774879694,-0.237151608,-0.131366,0.151883617,9.763554573,2.171540976,1.989581585,-0.162808567,-0.17506586,0.197448686,9.097966194,3.057395458,1.795651317,-0.288312376,-0.417813152,0.172134757,10.69011021,0.940921247,0.74220252,-0.099390499,-0.186257273,0.209439516,9.102754593,2.257732153,1.261744261,0.00106585,-0.289644688,0.195050538,9.718064308,2.056619167,0.897825658,0.03996937,-0.294174582,0.283782542,9.459490776,1.754949808,0.981622696,0.059954058,-0.250474721,0.340006143,10.51533413,2.446874142,0.584185243,-0.06261868,-0.295240432,0.259267986,10.55603504,1.89620769,-0.344765037,-0.312560499,-0.31788975,0.107917301,10.35971069,0.507570744,-0.873883605,-0.340272576,-0.213436455,-0.120973967,9.354146004,1.398213744,0.531512797,-0.114312403,-0.007993874,0.010392036,9.792284966,1.716642618,0.543483794,-0.130300149,-0.035173047,0.039169986,10.41477776,0.852335811,-0.354341865,-0.086333841,-0.022116385,0.049295556,9.866505623,0.469263524,-1.230619669,0.207307816,-0.126303226,0.092196018,9.607931137,1.058237195,-0.158017308,0.247010723,-0.130033687,-0.007194487,12.19845772,1.482010841,0.732625723,-0.047963247,0.148153126,0.15481469,9.753977776,1.359906554,1.288080573,-0.189721286,0.187323123,0.258202136,10.0317049,0.689530075,1.312022567,-0.209972441,0.097258806,0.323485464,10.3214035,0.392649084,1.18752408,-0.304300129,0.34693414,0.289378256,9.931148529,0.488417149,1.735796213,-0.281117916,0.452719748,0.243546709,10.33337498,1.022324085,1.319205165,-0.303767234,0.501482368,0.273923427,9.497797966,0.837970614,1.482010841,-0.362921923,0.446324646,0.252606452,9.294290543,-0.615309834,1.496376038,-0.086067379,0.16414088,0.241947934,9.425971985,-0.385466486,0.555454791,-0.003996937,0.107650839,0.098058186,8.7843256,-0.18674773,0.689530075,-0.17559877,0.077540584,-0.068214394,9.612719536,-0.136469498,1.175553083,-0.20570904,0.025047474,-0.184658498,9.840168953,-0.514753342,1.762132406,0.08207044,-0.134830013,-0.219032168,10.31422138,0.617704034,1.541865945,0.133764163,-0.231822357,-0.231022969,9.847352028,0.524330199,1.37427175,0.03543951,-0.207307816,-0.218499228,9.63666153,0.44532153,2.23139596,-0.05595712,-0.122572735,-0.231555894,0,HIGHKNEES
9.950302124,1.07739079,0.354341865,-0.135629401,0.034640122,-0.046098009,10.01733971,1.024718285,0.380678058,-0.116177641,0.043966308,-0.049295556,10.01015759,0.92895025,0.390254885,-0.064750381,0.053825419,-0.046630934,10.08198357,1.108515382,0.256179571,-0.043966308,0.038637057,-0.051160797,10.08677197,1.086967587,-0.01436521,-0.011724349,0.137228176,0.00319755,9.909601212,1.094150186,-0.016759412,0.037038282,0.330147028,0.124437973,9.562441826,0.615309834,0.062249243,0.191586524,0.384238869,0.291243494,10.07958889,0.732625723,0.450109929,0.264330775,0.345868289,0.325350702,10.27351952,2.394201756,-0.213083953,-0.028777948,0.207307816,0.059954058,10.0460701,0.751779318,1.369483352,-0.114312403,0.251274139,0.020251149,10.9893856,0.330399841,1.663970232,0.175332308,0.172667682,-0.147620216,9.715670586,1.429338455,1.628057122,0.197182223,0.210238889,-0.292842269,9.921571732,1.9321208,1.230619669,0.113246553,-0.048762634,-0.301369071,10.12029076,1.537077546,1.711854219,0.103120975,0.250474721,-0.300569683,9.749189377,1.891419291,1.613691926,0.059154671,0.235019907,-0.245944872,9.660603523,1.295263171,2.355894566,0.08313629,0.51000917,-0.275788665,9.361329079,2.422932148,2.53067112,-0.014388974,0.419145465,-0.285381317,9.346963882,2.176329374,2.621650934,-0.148153126,0.395963252,-0.312027574,9.241618156,2.049436569,2.365471363,-0.17346707,0.182260334,-0.34906584,9.500192642,2.161964178,1.78128612,-0.192652375,0.044499233,-0.295240432,9.117119789,2.178723574,1.26653266,-0.088732004,0.115111791,-0.202777937,8.683769226,2.497152328,1.695094824,-0.007727412,0.134297088,-0.061019909,8.971074104,2.705447912,2.477998734,-0.155880541,-0.022915773,0.046098009,8.997409821,2.389413357,2.173935175,-0.385038286,-0.259001523,0.220364481,9.58638382,1.982398987,1.934514999,-0.407421142,-0.308830023,0.254205197,9.435548782,1.721431017,2.504334927,-0.339473218,-0.29710567,0.257935673,10.11310768,1.699883223,2.334346771,-0.171335369,-0.157479316,0.242747322,8.779537201,2.099714994,3.471592426,-0.15428178,-0.153748855,0.239016846,9.933543205,1.209071875,2.207453966,0.045032158,-0.138560489,0.28671363,8.573636055,2.719813108,3.028665066,-0.178263396,-0.474836111,0.209705979,10.55603504,1.362300754,0.399831682,-0.178796321,-0.424474716,0.237684533,9.694122314,-0.229843363,1.240196466,0.176131696,-0.139359877,0.200912714,10.14423275,2.726995707,0.933738649,0.088199086,-0.191586524,0.172934145,10.29985619,2.758120298,0.229843363,-0.29710567,-0.189721286,0.042633995,10.01255131,0.244208574,-0.347159237,-0.503081143,-0.366652369,0.010658499,9.945513725,0.608127236,-0.660799682,-0.351464033,-0.268327713,-0.086333841,9.775525093,1.295263171,0.162805721,-0.098324656,-0.042101074,-0.029310873,11.51850414,-0.603338838,0.349553436,0.164940268,0.09246248,0.114312403,9.828198433,-0.337582439,0.505176544,0.48203063,0.206508413,0.139359877,10.28549004,1.216254473,0.672770679,0.399160802,-0.038370594,0.174266458,10.73560047,1.30005157,0.682347476,0.141225114,0.15481469,0.268327713,9.698910713,0.828393817,1.398213744,0.001332312,0.126036748,0.305366009,10.44350815,1.096544385,1.400607944,-0.192918837,0.179062784,0.264330775,10.07719517,0.555454791,1.984793186,-0.364520669,0.32721591,0.270725876,10.0269165,0.002394202,1.922544003,-0.373846859,0.338407338,0.237684533,10.22802925,0.790086567,1.793257117,-0.425274134,0.429537535,0.334943324,9.871294022,-0.538695395,2.126051188,-0.200646251,0.422609508,0.41967839,9.435548782,-1.010353088,1.726219416,0.091396637,0.168137819,0.371448696,8.255207062,-1.199495077,1.007958889,0.118042871,0.094327718,0.169736609,8.7843256,-1.074996591,1.216254473,-0.082603365,0.196116373,-0.052759573,8.954314232,-1.312022567,2.078166962,-0.03757121,-0.005329249,-0.211038291,9.945513725,0.047884032,1.379060149,0.045565084,-0.273923427,-0.310961694,10.24478912,-0.119710088,1.438915253,0.15481469,-0.360257268,-0.258735061,10.36928749,0.418985307,1.850717902,0.043699846,-0.1931853,-0.213436455,9.962273598,-0.129286885,1.936909199,-0.061286367,-0.157479316,-0.210771829,9.507374763,0.397437483,2.549824715,-0.209705979,-0.078339972,-0.239016846,10.28788471,-0.20350714,1.259350061,-0.217166916,-0.219032168,-0.277653903,9.423578262,0.471657723,1.908178806,-0.219565079,-0.138826951,-0.231022969,10.55603504,0.280121595,0.629675031,-0.21450229,-0.205975503,-0.266196012,9.718064308,1.333570361,1.125274777,-0.473237365,-0.045298621,-0.251807034,0,HIGHKNEES
9.933543205,1.177947283,0.433350503,-0.087666154,-0.042633995,-0.018385911,10.06282997,1.180341482,0.37349546,-0.104186833,-0.057022974,-0.030909648,10.15380955,1.00317049,0.320823014,-0.080471672,-0.05808882,-0.028245023,10.27351952,0.407014281,0.069431849,0.069280244,0.010924961,0.017852986,10.03409958,0.462080926,0.177170932,0.243813157,0.117776416,0.07274425,10.00058079,0.730231524,-0.126892686,0.317356825,0.159611031,0.099124044,9.809044838,0.81642276,-0.474051923,0.340006143,0.262998462,0.167071983,10.53927612,0.110133275,-0.251391172,0.479632467,0.385571182,0.136695251,10.29985619,1.407790542,-0.452504128,0.286180705,0.353862166,-0.036238898,8.552088737,3.538630009,-0.63206923,-0.329081148,0.092995405,-0.11191424,11.12346077,1.07739079,1.893813491,-0.403690636,0.276588053,0.014655436,10.61349583,0.347159237,2.549824715,-0.220098019,0.294174582,-0.160676882,9.375694275,1.422155857,1.515529633,-0.221963242,0.080471672,-0.308297068,9.588777542,2.068590164,1.580173135,-0.314692199,0.026113322,-0.339473218,9.981427193,1.517923832,1.544260144,-0.254738122,0.147087291,-0.240882084,9.591172218,1.065419793,2.097320795,-0.17559877,0.130300149,-0.195317,10.00536919,1.328781962,1.520318031,-0.061019909,0.099656969,-0.235819295,10.05804157,1.474828243,1.644816518,0.000532925,0.201978564,-0.308030635,10.12986755,1.874659896,1.59693253,0.098324656,0.282183766,-0.367984682,10.11550236,1.829170108,1.762132406,0.14175804,0.319222063,-0.455117911,9.251194954,1.711854219,0.907402456,0.347733527,0.31895557,-0.452186853,8.319850922,3.282450438,1.11569798,0.403157741,0.407954067,-0.270992339,8.55448246,3.459621429,1.841141105,0.111381322,0.382373661,-0.014655436,8.406042099,3.134010077,2.470816135,-0.219298616,0.179329246,0.16520673,9.332598686,2.418143749,2.688688517,-0.355727404,-0.136961713,0.241415009,9.358934402,2.121262789,2.353500366,-0.347467095,-0.367984682,0.254205197,10.13704967,0.840364814,2.49236393,0.02051761,-0.109516084,0.208906576,9.109937668,2.71263051,2.19308877,0.064750381,-0.200113311,0.199580401,8.987833023,2.580949545,2.959233284,-0.041568145,-0.081271052,0.226759583,9.469067574,3.751713991,1.618480325,-0.388235807,-0.446591109,0.218232766,10.22324085,0.265756398,1.422155857,-0.184658498,-0.146554366,0.203044415,8.815450668,2.003946781,1.252167463,-0.012790199,-0.441261858,0.200113311,9.909601212,2.281674147,0.823605359,-0.018385911,-0.302168459,0.2648637,9.866505623,2.202665567,0.715866327,-0.189188361,-0.255004585,0.271258801,10.42195988,2.829946518,0.330399841,-0.508943319,-0.169203669,0.160943344,10.13704967,1.271321058,-0.10055647,-0.726643145,-0.28564778,0.147886679,10.75954247,0.222660765,-0.74459672,-0.632315457,-0.212903515,-0.033840735,9.165003777,-0.244208574,0.150834709,-0.278719753,-0.012523737,-0.069546707,10.25436592,0.849941611,1.036689281,-0.033574272,-0.024514547,-0.064217456,10.88164711,0.359130263,-0.138863698,0.12230628,0.018119449,0.034640122,9.830592155,0.457292527,0.976834297,0.184392035,-0.003996937,0.027712099,10.9989624,1.826775908,1.108515382,-0.09352833,-0.002664625,0.115111791,10.23760605,1.034295082,1.335964561,-0.206774876,0.103387438,0.225160792,9.907206535,0.675164878,1.443703651,-0.265130162,0.145488501,0.27845329,10.16099167,0.636857629,1.67115283,-0.333877474,0.309629381,0.256070435,9.919178009,0.248996973,1.920149803,-0.255803972,0.330147028,0.227558956,10.34774017,1.254561663,1.663970232,-0.253672272,0.274722815,0.294174582,9.99100399,0.308852017,1.491587639,-0.029843798,0.188122496,0.381041348,9.54807663,-0.725443125,0.9648633,0.263797849,-0.004529862,0.363188356,8.815450668,-0.773327172,0.308852017,0.19638285,0.116710559,0.241415009,8.968679428,-0.749385118,0.804451764,-0.022649311,0.248609498,0.094061248,9.193734169,-0.500388145,1.484405041,-0.150551304,0.173999995,-0.107917301,9.732429504,-0.244208574,1.762132406,0.007993874,-0.05489127,-0.237151608,10.37168217,0.610521436,1.956062794,-0.029310873,-0.151350692,-0.282183766,9.995792389,0.442927301,2.003946781,-0.122039817,-0.106851459,-0.241415009,9.476250648,-0.225054964,2.736572504,-0.151883617,-0.125237361,-0.242214397,9.856928825,-0.423773706,1.994369984,-0.100722812,-0.276588053,-0.266196012,9.751583099,0.620098233,1.280897856,-0.12337213,-0.333877474,-0.283516079,10.7188406,1.446097851,0.529118598,-0.3709158,-0.111114852,-0.205442563,9.768342972,0.550666392,0.89064306,-0.522266448,-0.020784073,-0.187323123,0,HIGHKNEES
9.995792389,1.11569798,0.33279404,-0.076474734,0.009859112,0.001332312,9.974244118,1.065419793,0.361524463,-0.084735066,0.013589587,0.003464012,9.974244118,1.048660398,0.325611442,-0.100722812,-0.014122511,-0.002398162,9.904812813,1.046266198,0.411802679,-0.112713635,-0.026379786,-0.018652374,9.988609314,1.039083481,0.380678058,-0.116710559,-0.055424199,-0.023715161,10.0604353,0.905008256,0.349553436,-0.094327718,-0.053026035,-0.017320061,10.12268448,0.885854602,0.304063618,-0.060486984,-0.051693719,-0.010658499,10.05325317,0.687135875,0.114921682,-0.007727412,-0.050894335,0.014388974,10.17535686,0.541089594,-0.064643443,0.068214394,0.011191424,0.08207044,10.03409958,0.411802679,-0.143652096,0.132165387,0.098591112,0.144156188,9.892841339,0.507570744,-0.402225882,0.158811629,0.199047476,0.171335369,9.993397713,0.119710088,-0.280121595,0.231289431,0.303234309,0.139359877,10.37168217,0.730231524,-0.653617084,0.136695251,0.228624806,0.021050537,9.165003777,2.284068346,-1.544260144,-0.360523731,-0.002398162,-0.142024502,9.789890289,2.442085743,0.687135875,-0.692535996,0.116710559,0.011990812,11.88002872,-0.253785372,2.583343744,-0.284848392,0.364520669,0.116177641,9.950302124,0.241814375,1.659181833,-0.108983152,0.130566612,-0.142557427,9.725247383,0.653617084,1.395819545,-0.0042634,-0.005862175,-0.32934764,9.87608242,1.644816518,1.180341482,0.011990812,0.07993874,-0.34799999,9.634267807,0.9672575,1.37666595,0.033840735,0.177730486,-0.221430331,9.91438961,1.37427175,1.209071875,-0.024248086,0.181194484,-0.252339959,9.928754807,1.221042871,1.343147159,-0.018652374,0.289111793,-0.279252678,9.607931137,1.788468719,1.309628367,-0.110848397,0.25660339,-0.274989277,9.47146225,1.352723956,1.762132406,-0.004529862,0.127102599,-0.255004585,9.698910713,2.068590164,0.972045898,-0.047163859,0.018385911,-0.189188361,9.569623947,2.200271368,0.969651699,-0.067947932,0.212104142,-0.118042871,9.066842079,2.085349798,1.309628367,-0.061819296,0.15534763,-0.012523737,9.275136948,2.432508945,1.836352706,-0.191320062,0.030376723,0.028777948,8.992621422,2.372653961,2.257732153,-0.375978559,-0.209705979,0.081271052,9.105149269,2.171540976,1.920149803,-0.537721276,-0.514539063,0.112447165,9.84974575,1.750161409,0.612915635,-0.60353756,-0.575825453,0.100456357,11.21204662,0.837970614,0.031124622,-0.377310872,-0.293375194,0.128701374,10.43393135,1.654393315,0.873883605,-0.317623258,0.077274114,0.032241959,9.40681839,1.352723956,2.015917778,-0.304033697,0.132964775,0.008260337,9.229647636,1.479616642,2.049436569,-0.143356815,0.038104136,0.113779478,9.198522568,1.798045516,1.996764183,-0.089797854,-0.087133229,0.221696794,10.25197124,1.393425345,0.658405483,-0.011191424,-0.066615619,0.269660026,9.591172218,1.295263171,1.604115129,0.015454824,0.044232771,0.231822357,9.753977776,2.576161146,0.797269166,-0.200379789,-0.272324651,0.156413481,11.23838234,1.118092179,-1.288080573,-0.320820838,-0.269660026,0.070612557,10.14662647,0.459686726,-2.45405674,-0.282183766,-0.293375194,-0.074875958,9.469067574,1.165976286,-1.496376038,-0.137761101,-0.243013784,-0.032508422,11.018116,-0.948103845,-0.605733037,0.471372128,0.032774884,0.54225117,9.540893555,-1.333570361,1.398213744,0.65443182,0.199580401,0.290977001,11.31499767,2.042253971,1.218648672,0.09246248,0.012257273,0.252606452,9.900024414,0.18674773,1.45088625,-0.027445635,0.215301678,0.247277185,9.782708168,-0.387860686,1.78368032,0.073810108,0.052226644,0.288045943,10.30464458,0.452504128,1.249773264,-0.087133229,0.200113311,0.221963242,9.866505623,-0.069431849,1.580173135,-0.110049009,0.265396625,0.219298616,10.10592556,0.18674773,1.120486379,-0.17559877,0.268327713,0.260333836,9.737217903,-0.320823014,0.754173517,-0.180128634,0.270725876,0.298970878,9.947908401,-1.41257906,1.233013868,-0.031176111,0.366119444,0.248875946,9.428366661,-1.101332784,1.211466074,0.209173039,0.160143942,0.137228176,9.718064308,-0.811634362,0.739808321,0.167604893,0.230223581,-0.006928025,9.006986618,-0.663193882,1.201889277,0.028245023,0.15428178,-0.107650839,9.698910713,-0.756567717,1.120486379,0.022116385,0.109249614,-0.147620216,9.143456459,-0.502782345,2.003946781,0.077274114,-0.007993874,-0.224094957,10.26394272,-0.227449164,1.838746905,0.11191424,-0.217966303,-0.168670759,9.825803757,0.521935999,2.149993181,-0.106851459,-0.231555894,-0.197448686,10.29746151,0.225054964,1.604115129,-0.352529854,-0.304833084,-0.189454809,0,HIGHKNEES
10.08916569,0.85473001,0.284909993,-0.213969365,-0.071678407,-0.041834611,10.08198357,0.55784899,0.299275219,-0.141225114,-0.076474734,-0.044765696,10.29506683,-0.177170932,0.282515794,0.085001536,-0.041301683,0.012523737,10.06761837,-0.344765037,-0.095768064,0.397561997,0.053558957,0.031975497,10.11071396,-0.007182605,-0.136469498,0.61499542,0.159611031,0.049828485,9.562441826,0.713472128,-0.603338838,0.611797869,0.166272581,0.047163859,9.993397713,1.127668977,-1.244984865,0.410618693,0.19425115,0.073543645,10.83376312,1.556231141,-1.024718285,0.044499233,0.277120978,-0.098324656,9.198522568,2.387019157,-0.51954174,-0.43833077,0.305632442,-0.109516084,11.18331623,0.799663365,2.238578558,-0.346401215,0.423142403,-0.128701374,9.967061996,1.45088625,2.257732153,-0.231289431,0.23422052,-0.304566622,9.461885452,1.728613615,1.403002143,-0.317623258,-0.030909648,-0.355993867,9.627084732,1.754949808,1.323993564,-0.352529854,-0.005329249,-0.32934764,10.07240677,1.910573006,1.417367458,-0.344269514,0.122572735,-0.279785603,9.909601212,1.029506683,1.697489023,-0.268594176,0.207840726,-0.255004585,10.08916569,1.549048543,1.565807939,-0.181727409,0.350398153,-0.339206725,9.284713745,2.147598982,2.121262789,-0.200379789,0.367451757,-0.375179172,9.856928825,2.042253971,1.470039845,-0.202777937,0.25766921,-0.374113321,9.342175484,1.958456993,1.704671621,-0.140159264,0.335742712,-0.358125567,9.344569206,2.418143749,1.326387763,-0.150551304,0.173200607,-0.302168459,8.987833023,2.449268341,1.37427175,0.001598775,0.209173039,-0.193451747,8.841787338,2.612074137,1.644816518,0.033840735,0.088732004,-0.048229709,8.880094528,2.930502892,2.018311977,-0.013589587,-0.043166921,0.103920363,9.818621635,1.987187386,1.663970232,0.041568145,-0.167604893,0.210238889,9.21528244,2.219424963,1.800439715,0.043166921,-0.250741184,0.227292493,10.15620327,2.078166962,1.484405041,0.107384384,-0.208373666,0.201445624,9.148244858,3.311181068,1.877054095,-0.142290965,-0.179595709,0.116977029,9.737217903,1.752555609,2.102109194,-0.089531392,-0.045032158,0.198780999,8.829815865,3.356670856,1.721431017,-0.198514536,-0.227825418,0.244879022,9.093177795,0.969651699,1.980004787,-0.009859112,-0.131366,0.381307811,9.526528358,3.289633036,0.821211159,-0.100989282,-0.636045933,0.494287878,11.49695683,0.37110126,0.265756398,-0.004529862,-0.086600304,0.413816214,9.545681953,1.742978811,0.89303726,0.060753446,-0.136162326,0.27632159,10.35492229,2.319981337,0.598550439,-0.144689128,-0.139093414,0.16467382,10.52491093,2.533065319,-0.344765037,-0.514272571,-0.258468598,-0.107917301,9.58638382,-0.038307227,-0.10055647,-0.571029067,-0.310695261,-0.057289433,10.02452278,0.339976639,-0.59615624,-0.401825428,-0.31895557,-0.096192956,9.890447617,1.467645645,-0.153228909,-0.411684513,-0.126303226,-0.051160797,10.15141487,0.138863698,-0.280121595,-0.459647775,0.039702907,-0.093261868,10.78108978,-0.169988319,0.081402861,-0.223029092,0.342670739,-0.134030625,10.26154804,0.488417149,0.442927301,0.021050537,0.242480844,0.060486984,9.402029991,0.916979253,1.15400517,0.074875958,0.024781011,0.052226644,11.11388397,1.029506683,0.885854602,-0.04103522,-0.03543951,0.261666149,9.866505623,1.242590666,0.720654726,-0.156946406,0.025047474,0.328814715,10.21605873,1.074996591,1.058237195,-0.313093394,0.163075045,0.332545161,9.746794701,-0.239420176,1.438915253,-0.210771829,0.253672272,0.29817152,9.742006302,-0.009576807,1.663970232,-0.015454824,0.156413481,0.246477783,10.26633644,0.16759412,1.283292055,0.057822358,0.149485439,0.224361405,9.734824181,1.146822572,1.343147159,-0.097258806,0.199047476,0.247277185,10.64701462,-0.383072257,0.825999558,0.025313934,0.249941811,0.345601827,10.02212811,0.325611442,0.624886632,-0.00319755,0.509742737,0.215834603,8.530540466,-0.069431849,0.952892303,-0.229157731,0.508410394,0.068214394,9.380482674,-0.586579442,1.651999116,-0.20357734,0.362388968,-0.075408876,9.437943459,-0.766144514,2.317587137,0.020784073,0.151883617,-0.14282389,9.622296333,-0.339976639,2.576161146,0.158811629,-0.173999995,-0.183592647,9.871294022,0.165199921,2.202665567,0.087666154,-0.224094957,-0.171868294,9.469067574,0.849941611,2.461239338,-0.197715163,-0.172667682,-0.21450229,9.294290543,-0.421379507,2.432508945,-0.245411947,-0.316024512,-0.260600299,9.823410034,-0.509964943,2.372653961,-0.076741189,-0.344535977,-0.282983154,10.96783829,1.735796213,1.15400517,-0.148419604,-0.174799383,-0.406355262,0,HIGHKNEES
9.873687744,1.098938584,0.998382092,-0.27845329,-0.131099537,-0.02691271,10.06761837,0.885854602,0.814028561,-0.280584991,-0.130833074,-0.037304748,10.23760605,0.526724398,0.739808321,-0.193984687,-0.127901986,-0.049828485,10.0412817,0.502782345,0.737414122,-0.060486984,-0.085534461,-0.007993874,10.18014526,0.119710088,0.397437483,0.119908117,0.017852986,0.056756508,9.847352028,0.342370838,0.098162271,0.278186828,0.134830013,0.120973967,9.758766174,0.842759013,0.330399841,0.269926488,0.354661554,0.152150065,10.18493366,0.926556051,1.051054597,0.145222053,0.428471655,0.162542105,9.03571701,1.407790542,-0.081402861,-0.155081168,-0.045298621,0.050094947,10.59673691,1.924938202,0.44532153,-0.387169987,-0.067681469,0.16467382,11.75792408,-0.435744703,2.691082716,-0.073810108,0.349598765,-0.047430322,9.47146225,0.577002585,1.78368032,0.134030625,0.192652375,-0.223562017,9.897629738,1.388636947,1.989581585,0.163874418,0.162275642,-0.359990805,9.648633003,1.491587639,1.984793186,0.220630929,0.30643183,-0.332545161,9.902418137,1.146822572,2.23139596,0.247810096,0.349332303,-0.25660339,10.06282997,1.055842996,1.855506301,0.280851454,0.470039815,-0.313892812,9.083600998,1.764526606,2.097320795,0.237950996,0.431935668,-0.347467095,9.526528358,1.900996208,1.477222443,0.177464008,0.341071963,-0.314425707,8.82263279,2.262520552,1.683123827,0.152949467,0.339206725,-0.217699856,8.968679428,2.398990154,1.63523972,0.087133229,0.174266458,-0.066615619,8.841787338,2.358288765,2.296039343,-0.044499233,0.044232771,0.040235836,9.435548782,2.379836559,2.466027737,-0.248609498,-0.15481469,0.107650839,9.272743225,1.956062794,2.743755102,-0.359724343,-0.210238889,0.108983152,9.622296333,1.582567334,2.825158119,-0.224627867,-0.139093414,0.144156188,8.999804497,2.296039343,2.961627483,-0.259267986,-0.106318533,0.273923427,9.481039047,1.527500629,3.485957623,-0.239816234,-0.129767224,0.279519141,9.514557838,1.659181833,1.991975784,-0.211837664,-0.409552813,0.22702603,9.789890289,0.656011283,1.750161409,0.009859112,-0.298970878,0.185724348,9.191340446,2.30801034,1.41018486,-0.034640122,-0.531326175,0.182260334,10.16817474,1.879448295,0.811634362,-0.177464008,-0.507344544,0.185724348,10.80982113,1.668758631,-0.383072257,-0.344535977,-0.439929545,0.035705972,10.29746151,2.233790159,-0.301669419,-0.556906581,-0.314159274,-0.102321595,9.957485199,0.761356115,0.119710088,-0.599274099,-0.190787122,-0.074609496,9.921571732,0.124498487,0.943315446,-0.306165397,-0.04103522,-0.049029093,9.198522568,0.715866327,0.318428814,-0.170003071,0.08020521,-0.180128634,9.267954826,2.784456491,0.48123455,-0.484695256,0.188388973,-0.411151588,11.05881786,2.221819162,0.442927301,-0.62325573,0.091130167,-0.219298616,9.967061996,-1.106121182,1.010353088,-0.104186833,0.059687596,-0.083935678,11.6908865,1.379060149,2.346317768,-0.037304748,0.17506586,0.137494639,9.682151794,2.123656988,2.099714994,-0.329614073,0.072211333,0.274722815,10.18014526,1.024718285,1.934514999,-0.463644713,0.028777948,0.357059717,10.0317049,0.663193882,2.049436569,-0.55370903,0.278186828,0.389035225,9.567230225,-0.433350503,2.190694571,-0.407421142,0.232621744,0.317356825,10.21127033,0.830788016,1.960851192,-0.363721281,0.355993867,0.346401215,9.514557838,-0.179565132,1.984793186,-0.319222063,0.271791726,0.35839203,9.880870819,0.04070143,1.611297727,-0.267261863,0.233687595,0.300303191,9.057265282,-0.524330199,1.462857246,-0.234486982,0.162808567,0.243546709,9.153033257,-0.459686726,1.403002143,-0.248343036,0.166805506,0.121506892,9.076418877,-1.149216771,1.790862918,-0.113246553,0.042101074,0.008526799,9.672574997,-0.538695395,2.159569979,-0.01385605,-0.069546707,-0.152416542,9.696516991,-0.306457818,2.068590164,0.104453288,-0.212104142,-0.224361405,9.775525093,-0.047884032,2.23139596,0.130300149,-0.262199074,-0.232888207,10.24957752,0.723048925,1.833958507,-0.005595712,-0.239816234,-0.231022969,9.550470352,0.248996973,2.240972757,-0.187323123,-0.071411945,-0.169736609,9.617507935,0.088585466,2.657563925,-0.222229704,-0.022116385,-0.207041353,9.260771751,-1.644816518,2.434903145,0.063950993,-0.161209792,-0.238483921,10.66137981,1.137245774,1.678335428,0.093794793,-0.027712099,-0.271525264,9.588777542,1.127668977,1.980004787,-0.186523736,-0.060753446,-0.15428178,9.662998199,0.466869324,1.884236693,-0.252339959,-0.056223582,-0.195050538,9.892841339,0.466869324,1.515529633,-0.180661559,-0.247543648,-0.146554366,0,HIGHKNEES
9.971850395,1.173158884,0.411802679,0.172134757,0.208107188,0.101522207,10.18253994,1.163581967,0.560243189,0.170535982,0.188921899,0.081004597,9.797073364,2.628833532,-0.555454791,-0.163874418,-0.104719758,-0.084468603,10.14902115,1.59693253,0.462080926,-0.343736589,0.094327718,0.015721286,11.06360626,0.074220255,1.733402014,-0.002398162,0.343736589,-0.038637057,9.454702377,1.070208192,1.63523972,0.123105668,0.305366009,-0.186523736,9.797073364,2.106897593,1.63523972,0.077540584,0.237684533,-0.291776419,9.174580574,1.848323703,2.533065319,0.02691271,0.288312376,-0.264064312,9.83777523,1.996764183,2.08295536,-0.054624807,0.078606427,-0.196116373,9.995792389,0.794874966,2.355894566,0.101522207,0.213969365,-0.270192951,10.35492229,1.288080573,1.460463047,0.312560499,0.290710568,-0.352796346,9.890447617,1.278503656,1.70946002,0.518802464,0.554241955,-0.418879032,8.729259491,3.361459255,1.649604917,0.304833084,0.409552813,-0.388768762,8.985439301,2.834734917,1.489193439,0.22702603,0.480698317,-0.216367543,8.190564156,3.031059265,1.991975784,0.100722812,0.408753455,-0.030909648,8.497021675,3.131615877,2.643198729,-0.082869835,0.182526797,0.128701374,9.143456459,2.796427488,2.439691544,-0.301369071,-0.174266458,0.239816234,9.524134636,2.217030764,2.53067112,-0.362388968,-0.299770296,0.210238889,9.421183586,1.405396342,2.923320293,-0.163607955,-0.284581929,0.221963242,8.781931877,2.738966703,3.110068083,-0.190520674,-0.369050533,0.238750383,9.313444138,2.336740971,2.887407303,-0.282716691,-0.292042881,0.254738122,8.834604263,3.306392431,2.422932148,-0.540918827,-0.710655391,0.241148531,11.16655636,0.067037649,0.529118598,-0.290977001,-0.34799999,0.241415009,9.133879662,1.675941229,1.292868972,-0.013056661,-0.363188356,0.190254211,10.03888798,2.042253971,0.687135875,-0.02691271,-0.344003052,0.262465537,10.10113716,2.130839586,0.002394202,-0.224361405,-0.27525574,0.204376727,10.18732834,2.920926094,0.02873042,-0.556906581,-0.250741184,0.088998467,9.363722801,0.634463429,0.10295067,-0.642973959,-0.372248113,0.18599081,11.25753593,-0.162805721,-0.555454791,-0.475901991,-0.31575802,-0.012790199,9.272743225,1.221042871,0.246602774,-0.434600294,-0.116977029,0.022116385,11.20965195,-0.122104287,0.579396784,-0.210505351,-0.05142726,0.193718225,10.42674828,-0.900219858,0.514753342,0.064483918,0.176398173,0.304566622,9.986215591,0.488417149,1.297657371,0.030909648,0.096725874,0.221963242,10.37647057,0.390254885,0.761356115,-0.089264929,0.06261868,0.273656964,9.866505623,-0.215478152,0.979228497,0.033840735,-0.009326187,0.259534448,10.12986755,0.074220255,0.845153213,0.076741189,0.091929555,0.272857577,9.756371498,-0.339976639,1.48679924,0.132698312,0.181727409,0.23528637,10.04846478,-0.323217243,1.534683347,0.237418056,0.159344569,0.159344569,10.60391903,0.63206923,1.249773264,0.131099537,0.262465537,0.147620216,10.40759468,0.548272192,1.357512355,0.007727412,0.464444101,0.278719753,10.23042393,0.04309563,1.170764685,0.139359877,0.416480839,0.431669205,9.533711433,-0.600944638,1.089361787,0.224094957,0.354395092,0.366385907,8.640673637,-0.998382092,0.663193882,0.057555895,0.322686076,0.254738122,8.74601841,-1.221042871,1.393425345,-0.170003071,0.342937201,0.04103522,8.808267593,-1.41018486,1.750161409,-0.110581927,0.125503823,-0.203310877,10.23042393,-0.828393817,1.805228114,0.03650536,-0.010125575,-0.381307811,10.3214035,0.181959331,1.994369984,0.137761101,-0.127635539,-0.342937201,9.619902611,0.177170932,2.547430515,0.085267991,-0.365852982,-0.200646251,10.19211674,-0.509964943,1.26653266,0.047163859,-0.330679953,-0.217699856,9.583989143,0.239420176,1.984793186,-0.121773355,-0.124171518,-0.249142408,9.682151794,0.895431459,1.972822189,-0.356260329,-0.08020521,-0.370649308,9.840168953,-0.512359142,1.59693253,-0.319754958,-0.362122506,-0.337341517,10.82418633,1.125274777,0.952892303,-0.413283318,-0.014388974,-0.391166925,9.02374649,0.825999558,1.74776721,-0.606202185,-0.060220521,-0.377843797,10.3453455,-0.548272192,1.034295082,-0.367984682,-0.215834603,-0.320554376,10.46026707,0.313640416,0.426167905,-0.007460949,-0.224627867,-0.094594181,9.998186111,0.387860686,-0.349553436,0.219032168,-0.331479341,0.001598775,10.10113716,0.687135875,-0.117315881,0.353329241,-0.208107188,-0.037304748,10.52491093,1.771709204,0.517147541,0.160410419,0.063950993,-0.062885143,9.461885452,-1.458068848,2.798821688,0.481497705,-0.361856043,-0.268860638,0,HIGHKNEES
9.897629738,1.170764685,0.550666392,-0.15481469,0.0042634,-0.02691271,10.02452278,0.945709646,0.497993946,-0.155614093,-0.046897396,-0.011990812,10.12747288,0.543483794,0.560243189,-0.074609496,-0.07087902,0.0,10.0412817,0.287304193,0.277727395,0.038903523,-0.029577335,0.043166921,10.09395409,0.134075299,0.117315881,0.205442563,0.143090352,0.124171518,9.91438961,0.268150598,0.229843363,0.408486992,0.351730466,0.225160792,10.44111347,0.292092621,0.359130263,0.531592667,0.421810091,0.176131696,9.533711433,2.075772762,-0.375889659,0.229424208,0.118309341,-0.066082694,9.801861763,2.025494576,0.067037649,-0.061019909,0.094061248,0.013589587,11.37006378,-0.079008654,1.948880196,0.229157731,0.354128659,-0.060220521,9.83777523,1.625662923,1.651999116,0.243813157,0.271791726,-0.211571202,9.787496567,1.438915253,1.539471745,0.090597242,0.21556814,-0.291243494,9.722852707,1.386242747,1.788468719,0.119108729,0.109782539,-0.358924955,9.919178009,1.261744261,1.513135433,0.242480844,0.153482378,-0.302967817,9.804255486,1.67115283,1.508347034,0.309362948,0.371715158,-0.289378256,9.33020401,1.960851192,2.334346771,0.292842269,0.482830018,-0.271791726,9.210494041,2.995146275,2.140416384,0.086600304,0.391699851,-0.253938764,9.440337181,2.82276392,2.53067112,-0.136695251,0.296839207,-0.264597237,9.165003777,2.097320795,2.161964178,-0.210771829,0.076208271,-0.200912714,9.708487511,1.867477298,1.443703651,-0.121506892,0.029577335,-0.220098019,9.107542992,2.609679937,1.302445769,-0.086600304,0.110049009,-0.168937206,8.901641846,2.394201756,1.728613615,-0.100722812,0.10178867,-0.030909648,8.999804497,2.631227732,2.183511972,-0.23528637,-0.013323124,0.071411945,9.351752281,2.444479942,2.188300371,-0.385038286,-0.179862171,0.136162326,9.773131371,2.190694571,2.578555346,-0.376511484,-0.222762644,0.042900458,9.536105156,2.336740971,2.853888512,-0.309895873,-0.268327713,-0.016787136,9.172186852,2.123656988,2.686294317,-0.215301678,-0.217433393,0.008526799,9.090784073,2.042253971,2.312798738,-0.07301072,-0.202245027,0.136428788,9.17697525,2.796427488,2.025494576,-0.147620216,-0.357059717,0.234486982,9.91438961,0.907402456,1.733402014,-0.063684531,-0.206774876,0.310961694,9.198522568,2.348711967,1.429338455,-0.125770286,-0.383439511,0.287513018,9.928754807,2.279279947,0.883460402,-0.330679953,-0.333344579,0.265396625,10.60631371,2.343923569,-0.323217243,-0.646970928,-0.275522202,0.081271052,10.20169353,2.703053713,-0.416591108,-0.958732009,-0.278186828,-0.130033687,9.744400978,2.293645144,-0.33518824,-1.186557412,-0.230223581,-0.136428788,9.720458984,-0.057460841,0.921767652,-0.929421127,-0.150551304,0.024248086,10.47463226,-1.089361787,0.85473001,-0.457249612,0.071411945,0.049029093,10.07480049,0.304063618,1.015141487,-0.062352221,-0.005595712,0.006128637,10.57997704,-0.174776718,0.050278235,0.324817777,-0.009059724,0.219298616,10.36449909,0.325611442,1.383848548,0.464177608,0.171068922,0.183326185,10.58955383,1.15400517,1.319205165,0.41141808,0.178796321,0.333078086,9.871294022,1.56101954,1.383848548,0.280318528,0.154015318,0.326949447,9.890447617,1.443703651,1.513135433,-0.002931087,0.176398173,0.305099547,9.890447617,0.201112941,1.714248419,-0.040235836,0.188388973,0.308830023,9.871294022,0.588973641,1.692700624,-0.042101074,0.218499228,0.24567841,11.03008747,1.479616642,0.871489406,-0.182793275,0.3709158,0.395696759,9.631873131,0.569819987,1.690306425,-0.397295564,0.673883617,0.42793873,9.267954826,-1.039083481,2.178723574,-0.112713635,0.425807029,0.441261858,8.616731644,-1.331176162,1.867477298,-0.020251149,0.338140905,0.249675348,8.65743351,-1.175553083,1.78368032,-0.034906585,0.180928022,0.098324656,8.817844391,-1.244984865,2.11647439,0.037837673,-0.025580399,-0.091396637,9.787496567,-0.78050977,1.958456993,0.249675348,-0.283782542,-0.182260334,10.19451046,-0.375889659,2.075772762,0.46950686,-0.354928017,-0.150018379,9.904812813,-0.225054964,2.19308877,0.51214087,-0.402891248,-0.077007659,10.12029076,0.48362875,1.532289028,0.234486982,-0.297638565,-0.140958652,10.05325317,0.447715729,2.293645144,-0.114045948,-0.015454824,-0.190520674,9.583989143,0.387860686,2.238578558,-0.357859105,-0.099124044,-0.287246555,9.634267807,0.268150598,1.810016513,-0.428205222,-0.268594176,-0.276588053,10.53927612,0.718260527,1.252167463,-0.5662328,-0.087666154,-0.287513018,9.48343277,0.351947635,1.678335428,-0.658162296,-0.082869835,-0.30749771,0,HIGHKNEES
9.576807022,1.980004787,1.774103403,-0.194517612,-0.347200602,0.135895863,9.710882187,2.45166254,1.388636947,-0.259534448,-0.390900433,0.127901986,9.418789864,2.37744236,1.312022567,-0.41861257,-0.410085768,0.104986221,9.832986832,2.159569979,1.477222443,-0.589415014,-0.433534473,0.100189894,11.26950741,0.323217243,0.773327172,-0.453519166,-0.249675348,0.029577335,9.622296333,1.096544385,0.584185243,-0.321620196,0.051693719,-0.013056661,10.02931118,2.310404539,0.404620081,-0.515871346,-0.062885143,0.00106585,9.133879662,2.030282974,1.22583127,-0.845219016,-0.076474734,0.064217456,10.79784966,1.017535686,2.573766708,-0.745295525,0.006661562,0.015721286,10.28070164,0.301669419,2.410961151,-0.429803967,0.074609496,-0.122839205,9.751583099,1.036689281,2.142810583,-0.201445624,0.070612557,-0.257402748,9.299078941,1.656787634,2.52827692,-0.127102599,0.147886679,-0.276588053,9.344569206,2.542642117,1.934514999,-0.281650841,-0.104453288,-0.211304754,9.983820915,1.063025594,1.886630893,-0.24567841,0.106851459,-0.140425727,10.0317049,1.134851575,1.477222443,-0.060753446,0.133764163,-0.207840726,9.744400978,1.838746905,2.013523579,0.047963247,0.278719753,-0.223295555,9.528923035,2.068590164,1.939303398,-0.088732004,0.083935678,-0.238483921,9.43315506,1.544260144,1.661576033,-0.077807046,0.171601832,-0.20570904,8.753201485,1.987187386,2.078166962,0.072211333,0.187323123,-0.087399691,8.923190117,2.985569477,2.53067112,0.023715161,0.078872897,0.018918836,9.418789864,1.984793186,2.066195965,0.035705972,-0.04103522,0.143623278,9.234436035,2.885013103,2.142810583,-0.125237361,-0.176131696,0.112447165,9.890447617,2.011129379,1.642422318,-0.081537522,-0.050361406,0.145754978,8.906430244,2.434903145,2.425326347,-0.137494639,-0.195849925,0.155880541,9.871294022,1.678335428,2.23139596,-0.065816231,-0.017320061,0.219565079,8.59278965,2.655169725,2.176329374,-0.220897391,-0.330147028,0.238750383,10.43393135,1.134851575,1.575384736,-0.133764163,-0.129234299,0.257402748,9.31823349,2.375048161,1.592144132,-0.180128634,-0.357059717,0.17346707,10.23760605,0.799663365,0.962469101,-0.013323124,-0.187589586,0.224361405,9.308655739,1.079784989,1.479616642,0.196649313,-0.178529859,0.188122496,10.05325317,2.590526342,0.845153213,0.043166921,-0.336275637,0.206774876,10.65419769,2.45405674,-0.383072257,-0.306698322,-0.332545161,-0.02904441,10.02931118,1.644816518,-0.804451764,-0.549179137,-0.378643185,-0.134297088,9.684545517,1.173158884,-0.311246216,-0.570229709,-0.247543648,-0.155614093,10.00776291,0.646434486,0.603338838,-0.364520669,0.008260337,0.013323124,10.96544361,0.191536129,0.342370838,-0.141225114,0.111647777,0.145754978,10.04846478,-0.998382092,-0.591367841,0.307231247,0.056490045,0.226493105,10.12507915,0.351947635,1.007958889,0.442860663,0.209439516,0.151617154,10.78348446,1.565807939,1.630451322,0.243013784,0.166539043,0.148419604,10.16338634,1.769315004,1.570596337,0.003996937,0.228624806,0.226226643,9.91438961,0.323217243,1.731007814,-0.103120975,0.233687595,0.313892812,9.749189377,0.1316811,1.958456993,-0.073277183,0.264064312,0.287246555,10.22802925,0.708683729,1.8602947,-0.094594181,0.379975498,0.256869823,9.749189377,0.787692368,2.207453966,-0.206774876,0.490024507,0.281650841,9.708487511,0.328005642,1.798045516,-0.152416542,0.307764143,0.308030635,9.351752281,-0.04070143,1.273715258,-0.230756521,0.32615009,0.274722815,9.033323288,-1.036689281,1.699883223,-0.17346707,0.284581929,0.183326185,8.748413086,-0.900219858,2.027888775,-0.030643184,0.119641654,-0.007993874,9.643844604,-0.811634362,2.066195965,0.130033687,-0.057289433,-0.124171518,10.08437729,-0.328005642,2.035071373,0.270459414,-0.111647777,-0.153215915,10.0317049,0.612915635,2.353500366,0.10258805,-0.197715163,-0.128168449,9.361329079,0.150834709,2.466027737,-0.100722812,-0.273656964,-0.157745793,9.545681953,0.045489833,2.930502892,-0.225160792,-0.327482402,-0.222762644,9.449913979,-0.414196908,1.707065821,-0.171068922,-0.502281785,-0.265663087,10.46984386,1.173158884,1.292868972,-0.322686076,-0.265396625,-0.269127101,10.31422138,0.272938997,0.78050977,-0.452453285,-0.199846849,-0.277920365,9.878476143,0.93134445,1.132457376,-0.607267976,0.103653908,-0.320287883,10.08916569,0.20350714,1.295263171,-0.584085763,0.010924961,-0.252073497,9.84974575,-0.763750315,0.651222885,-0.152416542,-0.193984687,-0.056756508,9.478644371,-0.363918662,-0.921767652,0.455117911,-0.54118526,-0.032508422,0,HIGHKNEES
9.998186111,0.972045898,0.450109929,-0.113779478,-0.017320061,-0.02158346,9.99100399,1.027112484,0.440533102,-0.132964775,-0.010924961,-0.026379786,10.02452278,1.00317049,0.421379507,-0.156946406,-0.004529862,-0.030643184,10.03888798,0.876277804,0.462080926,-0.16520673,0.0,-0.05489127,10.12268448,0.746990919,0.550666392,-0.137494639,-0.017852986,-0.076474734,10.14662647,0.074220255,1.122880578,0.014921899,0.040502299,-0.065549769,10.0317049,-0.217872351,1.031900883,0.211837664,0.103120975,-0.065816231,10.3166151,-0.007182605,0.538695395,0.438597232,0.257402748,0.003730475,9.993397713,0.215478152,0.469263524,0.685874403,0.302967817,0.016254211,9.387664795,1.563413739,-0.567425787,0.694934189,0.285914242,0.111647777,10.20887566,1.515529633,-0.354341865,0.50068301,0.315491587,0.189454809,10.59673691,2.298433542,-0.380678058,0.127102599,0.180395097,-0.071678407,8.32463932,3.318363667,-0.806845963,-0.483895868,-0.049029093,-0.047163859,12.05001736,1.000776291,1.750161409,-0.481497705,0.229424208,-0.090597242,10.17535686,1.079784989,1.915361404,-0.300036758,0.361856043,-0.275522202,8.932766914,1.37666595,2.360682964,-0.326416522,0.156946406,-0.305099547,9.880870819,1.647210717,1.862688899,-0.377843797,-0.018119449,-0.296572745,9.239224434,1.417367458,2.284068346,-0.369583488,-0.031176111,-0.243813157,10.3501339,1.137245774,1.517923832,-0.207574263,0.01385605,-0.221430331,9.342175484,1.582567334,2.207453966,-0.252073497,0.092995405,-0.260067374,10.25436592,2.322375536,1.230619669,-0.285914242,0.115911178,-0.272591114,10.0269165,1.285686255,1.544260144,-0.159877479,0.494287878,-0.244346097,9.337387085,1.63523972,1.527500629,0.033840735,0.466842234,-0.195849925,9.208099365,2.252943754,1.565807939,0.149751917,0.434067398,-0.166272581,8.532935143,2.497152328,2.030282974,0.156147003,0.273390502,-0.076208271,9.045293808,2.815581083,2.078166962,0.023182238,0.001598775,0.026113322,8.887276649,3.035847664,2.779668093,-0.270459414,-0.172134757,0.059421133,8.765172005,3.869029999,2.643198729,-0.714385927,-0.586483955,0.05249311,10.17056847,2.15478158,1.534683347,-0.866535962,-0.498551309,0.105252676,9.799467087,0.900219858,1.927332401,-0.570229709,-0.23528637,0.135362938,9.48343277,0.950498104,2.176329374,-0.22382848,-0.149485439,0.192385912,9.763554573,1.192312479,1.982398987,-0.03543951,-0.119908117,0.220630929,9.689333916,1.323993564,1.802833915,0.062085759,-0.128168449,0.213436455,9.662998199,1.625662923,1.572990537,0.106584989,-0.207307816,0.155614093,9.306262016,2.161964178,1.233013868,0.127102599,-0.363987744,0.150018379,9.940725327,1.972822189,0.40940848,0.075941809,-0.43007046,0.22596018,10.88404083,2.166752577,-0.430956304,-0.080471672,-0.303767234,0.126569673,9.88805294,2.30561614,-0.773327172,-0.221696794,-0.218499228,-0.043166921,9.514557838,-0.368707061,-0.454898328,-0.172667682,-0.283249617,-0.047963247,10.26633644,1.89860189,-0.644040287,-0.189454809,-0.07194487,-0.204376727,10.43393135,1.113303781,0.548272192,-0.256336898,0.045298621,0.099656969,10.19451046,-0.756567717,-0.007182605,0.058621746,-0.023715161,0.210238889,10.82418633,0.280121595,0.754173517,0.140958652,0.160143942,0.213969365,10.43632507,1.26653266,1.007958889,-0.05249311,0.1931853,0.315225124,10.29267311,0.81881696,1.079784989,-0.15481469,0.156413481,0.293375194,9.959878922,0.117315881,1.546654344,-0.136428788,0.21450229,0.320021451,10.16099167,-0.263362199,1.398213744,-0.022915773,0.242480844,0.282450229,9.581595421,0.598550439,1.489193439,-0.038903523,0.338407338,0.249408886,10.40041256,0.328005642,1.422155857,-0.071145482,0.509742737,0.232355282,8.894459724,0.067037649,2.367865562,-0.061819296,0.50281471,0.274989277,9.967061996,-0.320823014,2.032677174,0.094860643,0.238750383,0.3365421,9.854534149,0.117315881,1.865083098,0.169470131,0.197981626,0.392499238,9.854534149,-0.840364814,1.18752408,0.261133224,0.16414088,0.306698322,8.932766914,-0.651222885,1.065419793,0.045298621,0.327482402,0.076208271,8.719682693,-0.859518409,1.59693253,-0.013589587,0.221696794,-0.075408876,9.576807022,-0.526724398,2.118868589,0.064483918,0.12230628,-0.258202136,10.01255131,0.143652096,2.564189911,0.110581927,-0.121506892,-0.229157731,9.806650162,0.878672004,2.82036972,-0.088732004,-0.253938764,-0.173999995,9.749189377,-0.225054964,2.8993783,-0.294441044,-0.252872884,-0.231289431,9.344569206,0.845153213,2.875436306,-0.272324651,-0.033307809,-0.251540571,0,HIGHKNEES
9.943120003,1.168370485,0.497993946,-0.061286367,0.045032158,-0.005595712,9.993397713,1.103726983,0.44532153,-0.067947932,0.040235836,-0.014921899,9.943120003,1.125274777,0.464475125,-0.075142421,0.030376723,-0.018385911,9.950302124,1.110909581,0.488417149,-0.08207044,0.016254211,-0.021316998,10.00776291,1.084573388,0.469263524,-0.091396637,0.000532925,-0.020251149,10.09874249,0.81881696,0.497993946,-0.031442571,-0.005595712,-0.018119449,10.12986755,0.313640416,0.577002585,0.130833074,0.044499233,0.023448698,10.03409958,0.342370838,0.636857629,0.308030635,0.101522207,0.055690661,10.02931118,0.440533102,0.696712673,0.457249612,0.136961713,0.099124044,10.09156036,0.33279404,0.459686726,0.602205217,0.172401235,0.114578865,9.825803757,0.735019922,0.093373865,0.677880526,0.202511474,0.121506892,9.974244118,0.758961916,-0.213083953,0.730640113,0.310961694,0.201978564,10.59673691,1.15400517,-0.169988319,0.538254201,0.280584991,0.116710559,9.107542992,3.289633036,-0.955286503,-0.100456357,0.032508422,-0.073543645,10.14423275,1.788468719,0.9648633,-0.447124034,0.09352833,0.096192956,11.33893967,0.14844051,2.23139596,-0.292042881,0.305632442,-0.112713635,9.574412346,1.403002143,1.527500629,-0.324817777,0.156946406,-0.274189889,9.727641106,1.211466074,1.575384736,-0.293908119,0.144422665,-0.322686076,9.679757118,1.82198751,1.63523972,-0.333078086,0.084735066,-0.305099547,9.629479408,0.835576415,1.989581585,-0.263531387,0.175332308,-0.230490044,10.02212811,1.235408068,1.644816518,-0.178796321,0.15481469,-0.248076573,9.631873131,1.07739079,2.133233786,-0.057822358,0.27525574,-0.29817152,9.404424667,2.434903145,1.661576033,-0.162275642,0.015188362,-0.281650841,10.25436592,1.623268723,1.22583127,-0.129767224,0.257935673,-0.236085743,8.853757858,1.826775908,1.644816518,-0.08020521,0.184125587,-0.128434911,9.868899345,1.989581585,0.751779318,-0.007727412,0.208373666,-0.053825419,8.877699852,1.994369984,1.611297727,0.027179174,0.274456352,0.003464012,9.54807663,2.109291792,1.994369984,0.010658499,-0.009059724,0.012257273,9.387664795,2.288856745,2.317587137,-0.124437973,-0.038370594,0.042633995,9.315838814,2.030282974,2.923320293,-0.17346707,-0.067947932,0.114312403,8.611943245,2.284068346,3.076549292,-0.315491587,-0.238750383,0.202777937,9.392453194,1.968033791,2.691082716,-0.392499238,-0.338140905,0.22489433,9.983820915,2.33913517,1.563413739,-0.504946411,-0.486826956,0.165473193,9.993397713,0.864306808,1.127668977,-0.383705974,-0.318156213,0.096725874,9.727641106,1.572990537,0.59615624,-0.248343036,-0.425007641,0.149218991,10.08916569,1.046266198,1.07739079,-0.169736609,-0.188122496,0.161742732,9.986215591,1.642422318,0.785298169,-0.227825418,-0.247010723,0.139359877,10.81460953,2.477998734,0.442927301,-0.511607945,-0.254738122,-0.058888208,9.818621635,1.307234168,-1.18752408,-0.745029092,-0.300036758,-0.238483921,9.605537415,0.251391172,1.048660398,-0.474569678,-0.159611031,-0.018918836,10.27351952,1.323993564,1.434126854,-0.332012266,-0.016254211,0.070079632,10.12029076,1.00556469,0.857124209,-0.441261858,0.050094947,0.061552834,9.756371498,-0.067037649,0.323217243,-0.25447166,0.115111791,0.048229709,9.516951561,0.076614454,0.160411507,0.056490045,0.064483918,-0.058888208,11.0133276,1.017535686,-0.29688102,0.230756521,-0.0042634,0.111381322,10.21845245,-0.227449164,0.248996973,0.379709035,0.196915776,0.148419604,10.61828423,1.924938202,1.055842996,0.078606427,0.144422665,0.22542727,9.904812813,0.766144514,1.335964561,-0.092995405,0.090064317,0.330679953,10.25675964,0.59376204,1.386242747,-0.202511474,0.073810108,0.373580426,10.0269165,0.524330199,1.678335428,-0.387702912,0.273390502,0.357059717,9.895236015,-0.701501071,1.881842494,-0.310428768,0.233954057,0.321620196,10.07719517,-0.081402861,1.958456993,-0.247543648,0.397029072,0.305099547,9.955090523,-0.548272192,1.774103403,-0.126303226,0.404756516,0.301369071,9.660603523,-0.165199921,1.999158382,-0.05142726,0.419944882,0.263531387,9.165003777,-0.749385118,1.74776721,0.093261868,0.195050538,0.237950996,9.133879662,-0.897825658,1.230619669,0.104453288,0.155614093,0.086067379,8.932766914,-0.825999558,1.479616642,0.059421133,0.129767224,-0.09033078,9.375694275,-0.464475125,1.814804912,0.050094947,0.012523737,-0.231822357,9.904812813,-0.414196908,2.049436569,0.157745793,-0.122572735,-0.252073497,10.11310768,0.098162271,2.367865562,0.136428788,-0.161476254,-0.199313939,0,HIGHKNEES
9.430760384,0.984016895,1.218648672,-0.538520634,0.125237361,-0.281650841,9.588777542,0.823605359,1.663970232,-0.516137838,-0.07993874,-0.248343036,9.904812813,0.150834709,1.723825216,-0.447923422,0.099124044,-0.165473193,9.744400978,0.179565132,1.920149803,-0.29497394,0.136961713,-0.087666154,9.794678688,0.404620081,1.881842494,-0.049295556,0.14495559,0.035173047,9.698910713,0.907402456,1.778891921,0.081004597,0.095660031,0.120441042,9.641449928,1.156399369,1.67115283,0.116177641,-0.019451762,0.168404296,9.567230225,1.711854219,1.304839969,0.053292494,-0.03543951,0.20624195,9.531316757,1.551442742,1.034295082,-0.152683005,-0.170535982,0.273124039,10.26394272,0.421379507,0.112527482,-0.290177643,-0.342937201,0.254738122,11.83932781,-1.728613615,0.016759412,-0.151084229,-0.574759543,0.104719758,8.413225174,-2.240972757,-0.66798228,0.27525574,-0.485761106,-0.056490045,10.76911926,0.622492433,2.640804529,0.21503523,-0.304033697,-0.017852986,10.45069027,0.04070143,1.774103403,-0.283782542,0.24674426,0.003464012,9.107542992,-1.017535686,1.565807939,-0.219565079,0.283249617,-0.059154671,9.425971985,-0.141257897,0.237025961,-0.117776416,0.292042881,-0.134297088,9.921571732,-0.490811348,-1.59693253,-0.045565084,0.2648637,-0.046364475,10.6350441,1.22583127,-2.782062292,-0.439130157,0.133764163,0.189987749,11.54005241,-0.158017308,0.828393817,-0.504679918,0.556906581,0.244346097,11.0037508,-0.907402456,3.117250681,-0.129500762,0.304300129,-0.140425727,9.892841339,-0.450109929,2.573766708,0.025047474,0.176398173,-0.403424203,9.588777542,0.78050977,2.161964178,0.243013784,0.12337213,-0.488425732,9.883264542,1.668758631,2.109291792,0.209173039,0.172401235,-0.435399711,10.18732834,0.720654726,2.185906172,0.158545166,0.542784095,-0.449255735,8.611943245,0.859518409,2.829946518,0.147886679,0.419944882,-0.369050533,9.672574997,1.304839969,1.941697598,0.11298009,0.221430331,-0.350398153,8.757989883,1.18991828,1.55862534,0.059154671,0.202511474,-0.216900453,8.978256226,1.74776721,1.55862534,-0.065549769,0.044232771,-0.062085759,9.500192642,1.613691926,1.841141105,-0.261133224,-0.037837673,0.044499233,9.320627213,1.690306425,2.576161146,-0.452453285,-0.113779478,0.10258805,9.660603523,1.37666595,2.932897091,-0.444192976,-0.157479316,0.160943344,9.564835548,0.952892303,2.442085743,-0.352529854,-0.239816234,0.21663399,8.999804497,0.648828685,2.966415882,-0.10285452,-0.21450229,0.293641627,10.64701462,1.592144132,1.18991828,-0.04103522,-0.35013172,0.286447167,9.366117477,0.227449164,2.224213362,0.108983152,-0.009859112,0.227825418,9.804255486,2.025494576,1.288080573,-0.008526799,-0.253672272,0.253938764,9.591172218,0.672770679,1.323993564,-0.038370594,-0.08020521,0.279519141,10.78108978,0.758961916,0.071826048,-0.10178867,-0.270459414,0.14495559,9.983820915,0.172382519,-0.940921247,-0.191586524,-0.267794788,-0.179862171,9.804255486,-1.00317049,0.342370838,-0.050894335,-0.180661559,-0.213436455,10.77869606,0.304063618,0.555454791,0.301369071,-0.016787136,0.087399691,10.53448772,-1.249773264,1.065419793,0.505479336,0.085001536,0.25447166,10.53927612,0.787692368,1.939303398,0.261666149,0.184125587,0.276854515,10.27112484,0.150834709,2.066195965,0.096459419,0.140159264,0.346667677,10.08437729,0.447715729,1.608903527,-0.105519146,0.155614093,0.372248113,9.96466732,-0.921767652,1.996764183,-0.229957119,0.299770296,0.386104137,9.916783333,-0.835576415,1.948880196,-0.201445624,0.34906584,0.331745774,10.15620327,-0.421379507,2.250549555,-0.230223581,0.55370903,0.321353763,10.14183807,-0.548272192,2.147598982,-0.16520673,0.61392951,0.435399711,8.724471092,-1.26413846,2.178723574,-0.074076563,0.509476244,0.377310872,8.540117264,-1.577778935,2.159569979,-0.045032158,0.365320057,0.180928022,8.339004517,-1.900996208,2.576161146,-0.005062787,0.21663399,-0.043433387,9.097966194,-1.78368032,2.647987127,0.156946406,-0.012523737,-0.221430331,9.48343277,-0.924161851,2.801215887,0.247810096,-0.26592955,-0.295506895,9.933543205,-0.33279404,2.798821688,0.176931083,-0.418346077,-0.256070435,9.057265282,-0.509964943,3.074155092,0.030909648,-0.548113346,-0.267528325,9.320627213,-0.735019922,2.296039343,-0.053825419,-0.509209812,-0.411151588,9.634267807,-0.586579442,2.145204782,-0.074875958,-0.4103522,-0.494287878,10.50575733,0.612915635,2.262520552,-0.25766921,-0.228091896,-0.491090357,10.28549004,0.110133275,1.472434044,-0.510542154,-0.273656964,-0.406355262,0,HIGHKNEES
